File: xrd/previousNaming/CuOCuCl2_650.xy
5.000	304.000
5.060	330.000
5.120	321.000
5.180	314.000
5.240	314.000
5.300	287.000
5.360	312.000
5.420	307.000
5.480	293.000
5.540	278.000
5.600	308.000
5.660	302.000
5.720	282.000
5.780	307.000
5.840	294.000
5.900	282.000
5.960	257.000
6.020	270.000
6.080	247.000
6.140	268.000
6.200	267.000
6.260	251.000
6.320	250.000
6.380	262.000
6.440	257.000
6.500	267.000
6.560	255.000
6.620	247.000
6.680	239.000
6.740	229.000
6.800	253.000
6.860	261.000
6.920	232.000
6.980	219.000
7.040	251.000
7.100	241.000
7.160	250.000
7.220	241.000
7.280	227.000
7.340	242.000
7.400	234.000
7.460	254.000
7.520	232.000
7.580	245.000
7.640	231.000
7.700	240.000
7.760	231.000
7.820	226.000
7.880	217.000
7.940	226.000
8.000	218.000
8.060	219.000
8.120	236.000
8.180	233.000
8.240	215.000
8.300	231.000
8.360	238.000
8.420	234.000
8.480	231.000
8.540	221.000
8.600	239.000
8.660	224.000
8.720	236.000
8.780	228.000
8.840	222.000
8.900	247.000
8.960	236.000
9.020	240.000
9.080	236.000
9.140	238.000
9.200	245.000
9.260	246.000
9.320	226.000
9.380	240.000
9.440	252.000
9.500	261.000
9.560	255.000
9.620	251.000
9.680	241.000
9.740	237.000
9.800	246.000
9.860	247.000
9.920	232.000
9.980	247.000
10.040	236.000
10.100	246.000
10.160	235.000
10.220	238.000
10.280	242.000
10.340	234.000
10.400	242.000
10.460	238.000
10.520	239.000
10.580	238.000
10.640	232.000
10.700	240.000
10.760	240.000
10.820	247.000
10.880	244.000
10.940	250.000
11.000	264.000
11.060	244.000
11.120	250.000
11.180	244.000
11.240	234.000
11.300	232.000
11.360	240.000
11.420	253.000
11.480	219.000
11.540	239.000
11.600	234.000
11.660	234.000
11.720	245.000
11.780	239.000
11.840	225.000
11.900	248.000
11.960	240.000
12.020	222.000
12.080	228.000
12.140	250.000
12.200	220.000
12.260	214.000
12.320	244.000
12.380	246.000
12.440	228.000
12.500	229.000
12.560	242.000
12.620	225.000
12.680	223.000
12.740	216.000
12.800	233.000
12.860	233.000
12.920	202.000
12.980	211.000
13.040	213.000
13.100	214.000
13.160	218.000
13.220	222.000
13.280	209.000
13.340	231.000
13.400	202.000
13.460	206.000
13.520	212.000
13.580	203.000
13.640	211.000
13.700	219.000
13.760	197.000
13.820	215.000
13.880	215.000
13.940	205.000
14.000	209.000
14.060	195.000
14.120	206.000
14.180	198.000
14.240	205.000
14.300	207.000
14.360	211.000
14.420	213.000
14.480	218.000
14.540	218.000
14.600	205.000
14.660	221.000
14.720	202.000
14.780	206.000
14.840	212.000
14.900	194.000
14.960	207.000
15.020	202.000
15.080	187.000
15.140	192.000
15.200	201.000
15.260	231.000
15.320	197.000
15.380	192.000
15.440	189.000
15.500	184.000
15.560	197.000
15.620	189.000
15.680	196.000
15.740	186.000
15.800	175.000
15.860	194.000
15.920	185.000
15.980	182.000
16.040	199.000
16.100	188.000
16.160	192.000
16.220	177.000
16.280	192.000
16.340	186.000
16.400	185.000
16.460	179.000
16.520	175.000
16.580	191.000
16.640	178.000
16.700	168.000
16.760	194.000
16.820	162.000
16.880	197.000
16.940	178.000
17.000	183.000
17.060	178.000
17.120	176.000
17.180	179.000
17.240	183.000
17.300	176.000
17.360	176.000
17.420	188.000
17.480	186.000
17.540	180.000
17.600	180.000
17.660	185.000
17.720	185.000
17.780	176.000
17.840	180.000
17.900	178.000
17.960	166.000
18.020	165.000
18.080	176.000
18.140	175.000
18.200	193.000
18.260	172.000
18.320	177.000
18.380	176.000
18.440	168.000
18.500	183.000
18.560	175.000
18.620	172.000
18.680	170.000
18.740	157.000
18.800	161.000
18.860	177.000
18.920	204.000
18.980	201.000
19.040	178.000
19.100	177.000
19.160	169.000
19.220	161.000
19.280	156.000
19.340	176.000
19.400	159.000
19.460	158.000
19.520	154.000
19.580	156.000
19.640	169.000
19.700	166.000
19.760	160.000
19.820	159.000
19.880	165.000
19.940	165.000
20.000	162.000
20.060	160.000
20.120	160.000
20.180	160.000
20.240	146.000
20.300	157.000
20.360	169.000
20.420	153.000
20.480	166.000
20.540	142.000
20.600	148.000
20.660	152.000
20.720	153.000
20.780	161.000
20.840	158.000
20.900	155.000
20.960	154.000
21.020	159.000
21.080	163.000
21.140	149.000
21.200	148.000
21.260	136.000
21.320	151.000
21.380	149.000
21.440	149.000
21.500	150.000
21.560	159.000
21.620	155.000
21.680	151.000
21.740	147.000
21.800	143.000
21.860	144.000
21.920	154.000
21.980	151.000
22.040	145.000
22.100	157.000
22.160	151.000
22.220	153.000
22.280	149.000
22.340	136.000
22.400	155.000
22.460	158.000
22.520	139.000
22.580	142.000
22.640	137.000
22.700	142.000
22.760	152.000
22.820	148.000
22.880	165.000
22.940	152.000
23.000	148.000
23.060	158.000
23.120	148.000
23.180	154.000
23.240	159.000
23.300	149.000
23.360	150.000
23.420	152.000
23.480	144.000
23.540	144.000
23.600	156.000
23.660	138.000
23.720	137.000
23.780	155.000
23.840	150.000
23.900	155.000
23.960	160.000
24.020	150.000
24.080	138.000
24.140	141.000
24.200	129.000
24.260	143.000
24.320	147.000
24.380	148.000
24.440	132.000
24.500	138.000
24.560	141.000
24.620	139.000
24.680	137.000
24.740	138.000
24.800	146.000
24.860	141.000
24.920	133.000
24.980	127.000
25.040	144.000
25.100	145.000
25.160	131.000
25.220	146.000
25.280	139.000
25.340	118.000
25.400	139.000
25.460	135.000
25.520	145.000
25.580	150.000
25.640	147.000
25.700	152.000
25.760	138.000
25.820	147.000
25.880	141.000
25.940	149.000
26.000	134.000
26.060	149.000
26.120	135.000
26.180	129.000
26.240	143.000
26.300	145.000
26.360	151.000
26.420	147.000
26.480	165.000
26.540	182.000
26.600	164.000
26.660	145.000
26.720	149.000
26.780	163.000
26.840	164.000
26.900	146.000
26.960	166.000
27.020	153.000
27.080	161.000
27.140	156.000
27.200	156.000
27.260	145.000
27.320	140.000
27.380	133.000
27.440	140.000
27.500	159.000
27.560	147.000
27.620	134.000
27.680	142.000
27.740	136.000
27.800	133.000
27.860	142.000
27.920	138.000
27.980	138.000
28.040	139.000
28.100	128.000
28.160	142.000
28.220	165.000
28.280	149.000
28.340	161.000
28.400	196.000
28.460	194.000
28.520	209.000
28.580	195.000
28.640	164.000
28.700	142.000
28.760	151.000
28.820	138.000
28.880	162.000
28.940	144.000
29.000	134.000
29.060	146.000
29.120	152.000
29.180	134.000
29.240	160.000
29.300	148.000
29.360	162.000
29.420	126.000
29.480	155.000
29.540	140.000
29.600	135.000
29.660	163.000
29.720	158.000
29.780	157.000
29.840	149.000
29.900	163.000
29.960	153.000
30.020	162.000
30.080	165.000
30.140	177.000
30.200	173.000
30.260	184.000
30.320	171.000
30.380	161.000
30.440	181.000
30.500	180.000
30.560	215.000
30.620	255.000
30.680	250.000
30.740	268.000
30.800	256.000
30.860	264.000
30.920	281.000
30.980	320.000
31.040	330.000
31.100	370.000
31.160	453.000
31.220	490.000
31.280	595.000
31.340	700.000
31.400	915.000
31.460	1511.000
31.520	3262.000
31.580	8760.000
31.640	20145.000
31.700	20507.000
31.760	12463.000
31.820	4280.000
31.880	1573.000
31.940	927.000
32.000	638.000
32.060	548.000
32.120	432.000
32.180	350.000
32.240	289.000
32.300	320.000
32.360	283.000
32.420	279.000
32.480	253.000
32.540	254.000
32.600	238.000
32.660	241.000
32.720	250.000
32.780	250.000
32.840	222.000
32.900	220.000
32.960	229.000
33.020	237.000
33.080	243.000
33.140	278.000
33.200	275.000
33.260	283.000
33.320	289.000
33.380	286.000
33.440	302.000
33.500	284.000
33.560	314.000
33.620	280.000
33.680	312.000
33.740	329.000
33.800	354.000
33.860	435.000
33.920	489.000
33.980	538.000
34.040	627.000
34.100	917.000
34.160	1691.000
34.220	4127.000
34.280	10934.000
34.340	16560.000
34.400	11565.000
34.460	5996.000
34.520	1931.000
34.580	943.000
34.640	667.000
34.700	515.000
34.760	405.000
34.820	397.000
34.880	416.000
34.940	401.000
35.000	431.000
35.060	451.000
35.120	430.000
35.180	407.000
35.240	436.000
35.300	503.000
35.360	489.000
35.420	547.000
35.480	586.000
35.540	578.000
35.600	711.000
35.660	761.000
35.720	832.000
35.780	1051.000
35.840	1258.000
35.900	1856.000
35.960	3201.000
36.020	7231.000
36.080	18452.000
36.140	35453.000
36.200	30892.000
36.260	20137.000
36.320	7801.000
36.380	3078.000
36.440	1660.000
36.500	1151.000
36.560	848.000
36.620	670.000
36.680	558.000
36.740	450.000
36.800	473.000
36.860	380.000
36.920	383.000
36.980	402.000
37.040	346.000
37.100	354.000
37.160	318.000
37.220	316.000
37.280	315.000
37.340	276.000
37.400	296.000
37.460	281.000
37.520	260.000
37.580	249.000
37.640	264.000
37.700	246.000
37.760	259.000
37.820	249.000
37.880	239.000
37.940	248.000
38.000	238.000
38.060	243.000
38.120	223.000
38.180	221.000
38.240	230.000
38.300	219.000
38.360	249.000
38.420	238.000
38.480	248.000
38.540	278.000
38.600	313.000
38.660	306.000
38.720	266.000
38.780	249.000
38.840	228.000
38.900	255.000
38.960	221.000
39.020	197.000
39.080	189.000
39.140	210.000
39.200	196.000
39.260	202.000
39.320	198.000
39.380	184.000
39.440	186.000
39.500	191.000
39.560	195.000
39.620	166.000
39.680	182.000
39.740	177.000
39.800	180.000
39.860	171.000
39.920	166.000
39.980	184.000
40.040	172.000
40.100	173.000
40.160	161.000
40.220	184.000
40.280	193.000
40.340	170.000
40.400	170.000
40.460	178.000
40.520	170.000
40.580	177.000
40.640	177.000
40.700	192.000
40.760	173.000
40.820	199.000
40.880	174.000
40.940	163.000
41.000	168.000
41.060	162.000
41.120	160.000
41.180	158.000
41.240	144.000
41.300	164.000
41.360	142.000
41.420	147.000
41.480	153.000
41.540	146.000
41.600	146.000
41.660	151.000
41.720	154.000
41.780	164.000
41.840	145.000
41.900	141.000
41.960	156.000
42.020	136.000
42.080	146.000
42.140	132.000
42.200	148.000
42.260	153.000
42.320	161.000
42.380	155.000
42.440	149.000
42.500	121.000
42.560	155.000
42.620	142.000
42.680	134.000
42.740	136.000
42.800	136.000
42.860	143.000
42.920	158.000
42.980	188.000
43.040	157.000
43.100	166.000
43.160	165.000
43.220	146.000
43.280	144.000
43.340	131.000
43.400	152.000
43.460	135.000
43.520	143.000
43.580	140.000
43.640	135.000
43.700	130.000
43.760	135.000
43.820	135.000
43.880	136.000
43.940	118.000
44.000	127.000
44.060	127.000
44.120	142.000
44.180	145.000
44.240	124.000
44.300	133.000
44.360	132.000
44.420	121.000
44.480	122.000
44.540	148.000
44.600	128.000
44.660	130.000
44.720	132.000
44.780	124.000
44.840	123.000
44.900	133.000
44.960	141.000
45.020	135.000
45.080	142.000
45.140	149.000
45.200	152.000
45.260	130.000
45.320	133.000
45.380	144.000
45.440	131.000
45.500	137.000
45.560	136.000
45.620	111.000
45.680	141.000
45.740	144.000
45.800	137.000
45.860	161.000
45.920	159.000
45.980	154.000
46.040	157.000
46.100	150.000
46.160	154.000
46.220	150.000
46.280	176.000
46.340	147.000
46.400	158.000
46.460	153.000
46.520	162.000
46.580	169.000
46.640	165.000
46.700	152.000
46.760	169.000
46.820	195.000
46.880	216.000
46.940	254.000
47.000	278.000
47.060	324.000
47.120	378.000
47.180	553.000
47.240	845.000
47.300	1616.000
47.360	3582.000
47.420	6645.000
47.480	6730.000
47.540	4997.000
47.600	3638.000
47.660	1611.000
47.720	796.000
47.780	504.000
47.840	337.000
47.900	272.000
47.960	249.000
48.020	217.000
48.080	186.000
48.140	186.000
48.200	185.000
48.260	161.000
48.320	175.000
48.380	160.000
48.440	164.000
48.500	164.000
48.560	146.000
48.620	159.000
48.680	167.000
48.740	164.000
48.800	151.000
48.860	147.000
48.920	143.000
48.980	128.000
49.040	143.000
49.100	126.000
49.160	143.000
49.220	141.000
49.280	127.000
49.340	131.000
49.400	137.000
49.460	123.000
49.520	127.000
49.580	124.000
49.640	137.000
49.700	114.000
49.760	127.000
49.820	137.000
49.880	130.000
49.940	119.000
50.000	123.000
50.060	130.000
50.120	150.000
50.180	160.000
50.240	124.000
50.300	112.000
50.360	120.000
50.420	125.000
50.480	129.000
50.540	133.000
50.600	131.000
50.660	120.000
50.720	137.000
50.780	112.000
50.840	127.000
50.900	123.000
50.960	131.000
51.020	129.000
51.080	130.000
51.140	131.000
51.200	131.000
51.260	120.000
51.320	117.000
51.380	120.000
51.440	121.000
51.500	126.000
51.560	112.000
51.620	128.000
51.680	134.000
51.740	128.000
51.800	131.000
51.860	115.000
51.920	130.000
51.980	145.000
52.040	134.000
52.100	130.000
52.160	125.000
52.220	120.000
52.280	135.000
52.340	134.000
52.400	131.000
52.460	128.000
52.520	116.000
52.580	136.000
52.640	136.000
52.700	114.000
52.760	131.000
52.820	122.000
52.880	113.000
52.940	123.000
53.000	129.000
53.060	119.000
53.120	118.000
53.180	122.000
53.240	133.000
53.300	151.000
53.360	141.000
53.420	122.000
53.480	126.000
53.540	134.000
53.600	139.000
53.660	128.000
53.720	133.000
53.780	121.000
53.840	129.000
53.900	130.000
53.960	113.000
54.020	119.000
54.080	138.000
54.140	128.000
54.200	119.000
54.260	126.000
54.320	138.000
54.380	138.000
54.440	141.000
54.500	146.000
54.560	145.000
54.620	166.000
54.680	157.000
54.740	170.000
54.800	149.000
54.860	148.000
54.920	160.000
54.980	161.000
55.040	178.000
55.100	169.000
55.160	159.000
55.220	172.000
55.280	163.000
55.340	175.000
55.400	166.000
55.460	187.000
55.520	172.000
55.580	184.000
55.640	200.000
55.700	202.000
55.760	210.000
55.820	232.000
55.880	241.000
55.940	294.000
56.000	357.000
56.060	401.000
56.120	517.000
56.180	691.000
56.240	989.000
56.300	1598.000
56.360	3025.000
56.420	6174.000
56.480	9820.000
56.540	8052.000
56.600	6313.000
56.660	5352.000
56.720	2877.000
56.780	1355.000
56.840	770.000
56.900	534.000
56.960	407.000
57.020	316.000
57.080	273.000
57.140	235.000
57.200	233.000
57.260	219.000
57.320	183.000
57.380	193.000
57.440	188.000
57.500	178.000
57.560	189.000
57.620	179.000
57.680	166.000
57.740	188.000
57.800	148.000
57.860	158.000
57.920	181.000
57.980	168.000
58.040	155.000
58.100	178.000
58.160	165.000
58.220	152.000
58.280	176.000
58.340	144.000
58.400	182.000
58.460	158.000
58.520	167.000
58.580	154.000
58.640	147.000
58.700	157.000
58.760	148.000
58.820	150.000
58.880	156.000
58.940	148.000
59.000	142.000
59.060	153.000
59.120	162.000
59.180	142.000
59.240	141.000
59.300	155.000
59.360	140.000
59.420	136.000
59.480	142.000
59.540	142.000
59.600	152.000
59.660	158.000
59.720	144.000
59.780	141.000
59.840	144.000
59.900	154.000
59.960	139.000
60.020	152.000
60.080	133.000
60.140	150.000
60.200	132.000
60.260	135.000
60.320	160.000
60.380	171.000
60.440	160.000
60.500	163.000
60.560	179.000
60.620	173.000
60.680	169.000
60.740	190.000
60.800	172.000
60.860	179.000
60.920	178.000
60.980	165.000
61.040	155.000
61.100	172.000
61.160	180.000
61.220	173.000
61.280	168.000
61.340	174.000
61.400	185.000
61.460	193.000
61.520	180.000
61.580	188.000
61.640	190.000
61.700	188.000
61.760	186.000
61.820	198.000
61.880	196.000
61.940	203.000
62.000	211.000
62.060	223.000
62.120	248.000
62.180	269.000
62.240	315.000
62.300	372.000
62.360	444.000
62.420	620.000
62.480	817.000
62.540	1160.000
62.600	2036.000
62.660	3893.000
62.720	6709.000
62.780	7716.000
62.840	5737.000
62.900	4977.000
62.960	4285.000
63.020	2385.000
63.080	1336.000
63.140	783.000
63.200	535.000
63.260	399.000
63.320	322.000
63.380	281.000
63.440	262.000
63.500	232.000
63.560	220.000
63.620	203.000
63.680	196.000
63.740	192.000
63.800	185.000
63.860	188.000
63.920	186.000
63.980	184.000
64.040	176.000
64.100	177.000
64.160	167.000
64.220	158.000
64.280	180.000
64.340	175.000
64.400	180.000
64.460	155.000
64.520	169.000
64.580	174.000
64.640	172.000
64.700	162.000
64.760	166.000
64.820	172.000
64.880	169.000
64.940	166.000
65.000	178.000
65.060	153.000
65.120	148.000
65.180	184.000
65.240	181.000
65.300	169.000
65.360	168.000
65.420	179.000
65.480	194.000
65.540	202.000
65.600	199.000
65.660	199.000
65.720	197.000
65.780	209.000
65.840	213.000
65.900	255.000
65.960	263.000
66.020	311.000
66.080	403.000
66.140	617.000
66.200	1043.000
66.260	1334.000
66.320	1151.000
66.380	922.000
66.440	911.000
66.500	694.000
66.560	445.000
66.620	330.000
66.680	280.000
66.740	245.000
66.800	227.000
66.860	219.000
66.920	228.000
66.980	219.000
67.040	230.000
67.100	244.000
67.160	251.000
67.220	258.000
67.280	306.000
67.340	392.000
67.400	408.000
67.460	462.000
67.520	618.000
67.580	828.000
67.640	1294.000
67.700	2203.000
67.760	3980.000
67.820	5975.000
67.880	5686.000
67.940	4262.000
68.000	3967.000
68.060	3366.000
68.120	2020.000
68.180	1144.000
68.240	725.000
68.300	555.000
68.360	411.000
68.420	368.000
68.480	366.000
68.540	364.000
68.600	370.000
68.660	459.000
68.720	519.000
68.780	808.000
68.840	1254.000
68.900	2172.000
68.960	3118.000
69.020	2802.000
69.080	2087.000
69.140	1995.000
69.200	1674.000
69.260	1123.000
69.320	601.000
69.380	413.000
69.440	305.000
69.500	270.000
69.560	235.000
69.620	208.000
69.680	217.000
69.740	163.000
69.800	183.000
69.860	172.000
69.920	169.000
69.980	159.000
70.040	164.000
70.100	165.000
70.160	161.000
70.220	142.000
70.280	163.000
70.340	163.000
70.400	143.000
70.460	152.000
70.520	142.000
70.580	150.000
70.640	140.000
70.700	148.000
70.760	148.000
70.820	129.000
70.880	147.000
70.940	149.000
71.000	154.000
71.060	135.000
71.120	136.000
71.180	141.000
71.240	138.000
71.300	141.000
71.360	146.000
71.420	124.000
71.480	119.000
71.540	137.000
71.600	129.000
71.660	147.000
71.720	129.000
71.780	140.000
71.840	142.000
71.900	130.000
71.960	140.000
72.020	142.000
72.080	166.000
72.140	151.000
72.200	162.000
72.260	212.000
72.320	288.000
72.380	403.000
72.440	548.000
72.500	579.000
72.560	454.000
72.620	395.000
72.680	405.000
72.740	329.000
72.800	238.000
72.860	192.000
72.920	167.000
72.980	140.000
73.040	145.000
73.100	131.000
73.160	130.000
73.220	124.000
73.280	131.000
73.340	122.000
73.400	123.000
73.460	128.000
73.520	129.000
73.580	123.000
73.640	140.000
73.700	117.000
73.760	131.000
73.820	128.000
73.880	122.000
73.940	136.000
74.000	120.000
74.060	122.000
74.120	127.000
74.180	120.000
74.240	136.000
74.300	124.000
74.360	109.000
74.420	131.000
74.480	131.000
74.540	114.000
74.600	128.000
74.660	136.000
74.720	138.000
74.780	135.000
74.840	142.000
74.900	135.000
74.960	142.000
75.020	132.000
75.080	132.000
75.140	130.000
75.200	131.000
75.260	116.000
75.320	121.000
75.380	123.000
75.440	120.000
75.500	130.000
75.560	113.000
75.620	119.000
75.680	105.000
75.740	129.000
75.800	117.000
75.860	130.000
75.920	127.000
75.980	117.000
76.040	116.000
76.100	120.000
76.160	130.000
76.220	124.000
76.280	132.000
76.340	139.000
76.400	161.000
76.460	159.000
76.520	184.000
76.580	224.000
76.640	303.000
76.700	397.000
76.760	626.000
76.820	928.000
76.880	952.000
76.940	722.000
77.000	597.000
77.060	611.000
77.120	540.000
77.180	350.000
77.240	251.000
77.300	189.000
77.360	166.000
77.420	156.000
77.480	128.000
77.540	127.000
77.600	134.000
77.660	127.000
77.720	116.000
77.780	110.000
77.840	123.000
77.900	111.000
77.960	118.000
78.020	121.000
78.080	103.000
78.140	111.000
78.200	101.000
78.260	120.000
78.320	119.000
78.380	102.000
78.440	117.000
78.500	105.000
78.560	100.000
78.620	103.000
78.680	108.000
78.740	108.000
78.800	105.000
78.860	117.000
78.920	121.000
78.980	106.000
79.040	102.000
79.100	110.000
79.160	98.000
79.220	113.000
79.280	105.000
79.340	109.000
79.400	98.000
79.460	108.000
79.520	113.000
79.580	100.000
79.640	105.000
79.700	99.000
79.760	106.000
79.820	100.000
79.880	102.000
79.940	110.000
80.000	96.000
80.060	100.000
80.120	119.000
80.180	118.000
80.240	108.000
80.300	125.000
80.360	108.000
80.420	113.000
80.480	103.000
80.540	105.000
80.600	108.000
80.660	114.000
80.720	97.000
80.780	126.000
80.840	117.000
80.900	142.000
80.960	135.000
81.020	159.000
81.080	199.000
81.140	243.000
81.200	352.000
81.260	489.000
81.320	513.000
81.380	397.000
81.440	358.000
81.500	354.000
81.560	326.000
81.620	250.000
81.680	207.000
81.740	168.000
81.800	135.000
81.860	133.000
81.920	116.000
81.980	125.000
82.040	117.000
82.100	102.000
82.160	105.000
82.220	92.000
82.280	113.000
82.340	107.000
82.400	105.000
82.460	116.000
82.520	100.000
82.580	105.000
82.640	97.000
82.700	104.000
82.760	102.000
82.820	101.000
82.880	101.000
82.940	102.000
83.000	102.000
83.060	113.000
83.120	103.000
83.180	103.000
83.240	101.000
83.300	101.000
83.360	103.000
83.420	107.000
83.480	100.000
83.540	94.000
83.600	100.000
83.660	102.000
83.720	107.000
83.780	97.000
83.840	109.000
83.900	98.000
83.960	98.000
84.020	106.000
84.080	112.000
84.140	101.000
84.200	91.000
84.260	114.000
84.320	99.000
84.380	105.000
84.440	98.000
84.500	95.000
84.560	103.000
84.620	97.000
84.680	98.000
84.740	98.000
84.800	85.000
84.860	100.000
84.920	93.000
84.980	101.000
85.040	117.000
85.100	98.000
85.160	97.000
85.220	98.000
85.280	94.000
85.340	101.000
85.400	104.000
85.460	105.000
85.520	97.000
85.580	103.000
85.640	112.000
85.700	108.000
85.760	99.000
85.820	103.000
85.880	99.000
85.940	110.000
86.000	108.000
86.060	96.000
86.120	92.000
86.180	103.000
86.240	116.000
86.300	113.000
86.360	117.000
86.420	112.000
86.480	100.000
86.540	112.000
86.600	108.000
86.660	103.000
86.720	104.000
86.780	98.000
86.840	118.000
86.900	92.000
86.960	116.000
87.020	113.000
87.080	93.000
87.140	122.000
87.200	101.000
87.260	98.000
87.320	103.000
87.380	106.000
87.440	119.000
87.500	124.000
87.560	104.000
87.620	113.000
87.680	110.000
87.740	112.000
87.800	111.000
87.860	114.000
87.920	121.000
87.980	108.000
88.040	118.000
88.100	110.000
88.160	118.000
88.220	111.000
88.280	111.000
88.340	107.000
88.400	115.000
88.460	112.000
88.520	129.000
88.580	117.000
88.640	130.000
88.700	126.000
88.760	125.000
88.820	146.000
88.880	163.000
88.940	174.000
89.000	173.000
89.060	190.000
89.120	272.000
89.180	290.000
89.240	384.000
89.300	557.000
89.360	807.000
89.420	1248.000
89.480	1600.000
89.540	1648.000
89.600	1342.000
89.660	1060.000
89.720	1034.000
89.780	1057.000
89.840	941.000
89.900	668.000
89.960	590.000
90.000	590.000