File: xrd/previousNaming/ZnOCuCl2_650.xy
5.000	484.000
5.060	493.000
5.120	436.000
5.180	449.000
5.240	426.000
5.300	463.000
5.360	432.000
5.420	467.000
5.480	452.000
5.540	458.000
5.600	427.000
5.660	421.000
5.720	426.000
5.780	425.000
5.840	401.000
5.900	427.000
5.960	421.000
6.020	396.000
6.080	410.000
6.140	417.000
6.200	420.000
6.260	360.000
6.320	426.000
6.380	413.000
6.440	422.000
6.500	421.000
6.560	416.000
6.620	405.000
6.680	445.000
6.740	395.000
6.800	409.000
6.860	417.000
6.920	394.000
6.980	387.000
7.040	403.000
7.100	422.000
7.160	424.000
7.220	401.000
7.280	399.000
7.340	391.000
7.400	419.000
7.460	403.000
7.520	397.000
7.580	378.000
7.640	413.000
7.700	419.000
7.760	412.000
7.820	423.000
7.880	410.000
7.940	420.000
8.000	403.000
8.060	358.000
8.120	384.000
8.180	401.000
8.240	412.000
8.300	403.000
8.360	420.000
8.420	381.000
8.480	392.000
8.540	410.000
8.600	390.000
8.660	406.000
8.720	382.000
8.780	393.000
8.840	397.000
8.900	391.000
8.960	404.000
9.020	403.000
9.080	397.000
9.140	398.000
9.200	423.000
9.260	374.000
9.320	415.000
9.380	389.000
9.440	408.000
9.500	420.000
9.560	443.000
9.620	414.000
9.680	407.000
9.740	401.000
9.800	408.000
9.860	403.000
9.920	426.000
9.980	407.000
10.040	425.000
10.100	400.000
10.160	414.000
10.220	415.000
10.280	438.000
10.340	417.000
10.400	411.000
10.460	424.000
10.520	390.000
10.580	418.000
10.640	411.000
10.700	414.000
10.760	422.000
10.820	441.000
10.880	437.000
10.940	438.000
11.000	445.000
11.060	418.000
11.120	453.000
11.180	448.000
11.240	442.000
11.300	449.000
11.360	448.000
11.420	410.000
11.480	449.000
11.540	425.000
11.600	443.000
11.660	449.000
11.720	437.000
11.780	431.000
11.840	446.000
11.900	450.000
11.960	461.000
12.020	432.000
12.080	435.000
12.140	451.000
12.200	441.000
12.260	443.000
12.320	436.000
12.380	438.000
12.440	450.000
12.500	463.000
12.560	424.000
12.620	428.000
12.680	432.000
12.740	456.000
12.800	442.000
12.860	426.000
12.920	452.000
12.980	448.000
13.040	455.000
13.100	450.000
13.160	461.000
13.220	452.000
13.280	436.000
13.340	438.000
13.400	424.000
13.460	450.000
13.520	468.000
13.580	436.000
13.640	450.000
13.700	456.000
13.760	442.000
13.820	459.000
13.880	439.000
13.940	459.000
14.000	432.000
14.060	448.000
14.120	452.000
14.180	458.000
14.240	459.000
14.300	482.000
14.360	473.000
14.420	451.000
14.480	438.000
14.540	448.000
14.600	465.000
14.660	475.000
14.720	459.000
14.780	500.000
14.840	497.000
14.900	502.000
14.960	486.000
15.020	499.000
15.080	555.000
15.140	679.000
15.200	1356.000
15.260	2912.000
15.320	2584.000
15.380	1034.000
15.440	635.000
15.500	545.000
15.560	499.000
15.620	517.000
15.680	480.000
15.740	484.000
15.800	455.000
15.860	453.000
15.920	475.000
15.980	491.000
16.040	477.000
16.100	468.000
16.160	447.000
16.220	475.000
16.280	471.000
16.340	458.000
16.400	470.000
16.460	465.000
16.520	473.000
16.580	445.000
16.640	480.000
16.700	470.000
16.760	483.000
16.820	479.000
16.880	498.000
16.940	467.000
17.000	461.000
17.060	468.000
17.120	493.000
17.180	499.000
17.240	442.000
17.300	476.000
17.360	469.000
17.420	463.000
17.480	492.000
17.540	455.000
17.600	465.000
17.660	466.000
17.720	464.000
17.780	486.000
17.840	463.000
17.900	465.000
17.960	471.000
18.020	451.000
18.080	497.000
18.140	496.000
18.200	486.000
18.260	469.000
18.320	492.000
18.380	540.000
18.440	506.000
18.500	565.000
18.560	579.000
18.620	594.000
18.680	578.000
18.740	623.000
18.800	836.000
18.860	2040.000
18.920	6170.000
18.980	8033.000
19.040	3117.000
19.100	958.000
19.160	640.000
19.220	600.000
19.280	563.000
19.340	555.000
19.400	512.000
19.460	500.000
19.520	527.000
19.580	495.000
19.640	501.000
19.700	484.000
19.760	519.000
19.820	500.000
19.880	491.000
19.940	485.000
20.000	518.000
20.060	496.000
20.120	504.000
20.180	496.000
20.240	496.000
20.300	505.000
20.360	514.000
20.420	500.000
20.480	489.000
20.540	473.000
20.600	495.000
20.660	494.000
20.720	490.000
20.780	517.000
20.840	521.000
20.900	511.000
20.960	511.000
21.020	481.000
21.080	510.000
21.140	511.000
21.200	493.000
21.260	462.000
21.320	483.000
21.380	508.000
21.440	483.000
21.500	495.000
21.560	508.000
21.620	496.000
21.680	491.000
21.740	474.000
21.800	512.000
21.860	513.000
21.920	506.000
21.980	489.000
22.040	498.000
22.100	489.000
22.160	490.000
22.220	507.000
22.280	491.000
22.340	519.000
22.400	525.000
22.460	519.000
22.520	531.000
22.580	542.000
22.640	516.000
22.700	530.000
22.760	560.000
22.820	597.000
22.880	582.000
22.940	686.000
23.000	920.000
23.060	1552.000
23.120	2410.000
23.180	2686.000
23.240	2283.000
23.300	1673.000
23.360	1276.000
23.420	1156.000
23.480	1797.000
23.540	3539.000
23.600	3525.000
23.660	1923.000
23.720	1068.000
23.780	915.000
23.840	1083.000
23.900	2006.000
23.960	3934.000
24.020	3196.000
24.080	1456.000
24.140	722.000
24.200	640.000
24.260	601.000
24.320	572.000
24.380	592.000
24.440	574.000
24.500	556.000
24.560	544.000
24.620	529.000
24.680	559.000
24.740	549.000
24.800	534.000
24.860	576.000
24.920	576.000
24.980	565.000
25.040	579.000
25.100	612.000
25.160	589.000
25.220	592.000
25.280	656.000
25.340	659.000
25.400	779.000
25.460	851.000
25.520	1192.000
25.580	1946.000
25.640	3340.000
25.700	4325.000
25.760	3282.000
25.820	1702.000
25.880	901.000
25.940	705.000
26.000	640.000
26.060	588.000
26.120	585.000
26.180	578.000
26.240	548.000
26.300	541.000
26.360	554.000
26.420	523.000
26.480	532.000
26.540	542.000
26.600	555.000
26.660	556.000
26.720	636.000
26.780	678.000
26.840	628.000
26.900	594.000
26.960	539.000
27.020	549.000
27.080	519.000
27.140	521.000
27.200	500.000
27.260	534.000
27.320	568.000
27.380	552.000
27.440	538.000
27.500	506.000
27.560	556.000
27.620	536.000
27.680	541.000
27.740	540.000
27.800	541.000
27.860	527.000
27.920	550.000
27.980	574.000
28.040	575.000
28.100	569.000
28.160	565.000
28.220	576.000
28.280	601.000
28.340	566.000
28.400	622.000
28.460	641.000
28.520	641.000
28.580	664.000
28.640	702.000
28.700	835.000
28.760	1101.000
28.820	1751.000
28.880	3181.000
28.940	4969.000
29.000	5627.000
29.060	4870.000
29.120	3609.000
29.180	2511.000
29.240	1857.000
29.300	1403.000
29.360	1077.000
29.420	916.000
29.480	818.000
29.540	767.000
29.600	728.000
29.660	746.000
29.720	714.000
29.780	732.000
29.840	766.000
29.900	899.000
29.960	1037.000
30.020	1841.000
30.080	4932.000
30.140	7725.000
30.200	5698.000
30.260	2939.000
30.320	1461.000
30.380	1016.000
30.440	890.000
30.500	830.000
30.560	778.000
30.620	771.000
30.680	785.000
30.740	870.000
30.800	1342.000
30.860	2595.000
30.920	3422.000
30.980	2740.000
31.040	1701.000
31.100	1218.000
31.160	1183.000
31.220	1404.000
31.280	2291.000
31.340	3748.000
31.400	5443.000
31.460	4673.000
31.520	2869.000
31.580	1607.000
31.640	1505.000
31.700	2103.000
31.760	3220.000
31.820	4462.000
31.880	4118.000
31.940	2640.000
32.000	1425.000
32.060	847.000
32.120	690.000
32.180	634.000
32.240	628.000
32.300	620.000
32.360	605.000
32.420	846.000
32.480	755.000
32.540	736.000
32.600	621.000
32.660	585.000
32.720	597.000
32.780	566.000
32.840	565.000
32.900	593.000
32.960	554.000
33.020	554.000
33.080	563.000
33.140	554.000
33.200	557.000
33.260	578.000
33.320	575.000
33.380	568.000
33.440	546.000
33.500	572.000
33.560	545.000
33.620	549.000
33.680	551.000
33.740	548.000
33.800	560.000
33.860	550.000
33.920	508.000
33.980	541.000
34.040	548.000
34.100	554.000
34.160	581.000
34.220	593.000
34.280	602.000
34.340	587.000
34.400	575.000
34.460	605.000
34.520	642.000
34.580	718.000
34.640	885.000
34.700	979.000
34.760	1012.000
34.820	932.000
34.880	876.000
34.940	779.000
35.000	739.000
35.060	714.000
35.120	699.000
35.180	693.000
35.240	687.000
35.300	811.000
35.360	1067.000
35.420	2236.000
35.480	4646.000
35.540	2680.000
35.600	2121.000
35.660	1506.000
35.720	2521.000
35.780	3030.000
35.840	2662.000
35.900	1872.000
35.960	1210.000
36.020	965.000
36.080	807.000
36.140	867.000
36.200	931.000
36.260	1502.000
36.320	3019.000
36.380	2625.000
36.440	2116.000
36.500	1253.000
36.560	1403.000
36.620	2842.000
36.680	4240.000
36.740	3077.000
36.800	2010.000
36.860	920.000
36.920	709.000
36.980	642.000
37.040	617.000
37.100	598.000
37.160	569.000
37.220	567.000
37.280	593.000
37.340	555.000
37.400	567.000
37.460	571.000
37.520	558.000
37.580	564.000
37.640	558.000
37.700	568.000
37.760	582.000
37.820	548.000
37.880	560.000
37.940	590.000
38.000	620.000
38.060	618.000
38.120	653.000
38.180	744.000
38.240	803.000
38.300	834.000
38.360	850.000
38.420	1077.000
38.480	2155.000
38.540	3296.000
38.600	2768.000
38.660	3196.000
38.720	1760.000
38.780	1396.000
38.840	874.000
38.900	708.000
38.960	669.000
39.020	623.000
39.080	602.000
39.140	619.000
39.200	554.000
39.260	535.000
39.320	562.000
39.380	549.000
39.440	556.000
39.500	568.000
39.560	574.000
39.620	587.000
39.680	709.000
39.740	674.000
39.800	688.000
39.860	724.000
39.920	795.000
39.980	1169.000
40.040	1181.000
40.100	1175.000
40.160	1047.000
40.220	852.000
40.280	729.000
40.340	636.000
40.400	589.000
40.460	583.000
40.520	586.000
40.580	575.000
40.640	595.000
40.700	608.000
40.760	581.000
40.820	597.000
40.880	687.000
40.940	1004.000
41.000	1861.000
41.060	2083.000
41.120	1703.000
41.180	1208.000
41.240	721.000
41.300	612.000
41.360	607.000
41.420	548.000
41.480	548.000
41.540	558.000
41.600	560.000
41.660	575.000
41.720	571.000
41.780	560.000
41.840	528.000
41.900	554.000
41.960	577.000
42.020	595.000
42.080	606.000
42.140	667.000
42.200	716.000
42.260	762.000
42.320	742.000
42.380	759.000
42.440	759.000
42.500	807.000
42.560	1068.000
42.620	1451.000
42.680	1683.000
42.740	1522.000
42.800	1214.000
42.860	923.000
42.920	838.000
42.980	882.000
43.040	922.000
43.100	974.000
43.160	921.000
43.220	924.000
43.280	918.000
43.340	847.000
43.400	809.000
43.460	761.000
43.520	772.000
43.580	795.000
43.640	857.000
43.700	794.000
43.760	752.000
43.820	718.000
43.880	665.000
43.940	627.000
44.000	614.000
44.060	585.000
44.120	571.000
44.180	564.000
44.240	569.000
44.300	551.000
44.360	575.000
44.420	546.000
44.480	575.000
44.540	621.000
44.600	784.000
44.660	959.000
44.720	884.000
44.780	854.000
44.840	773.000
44.900	892.000
44.960	1256.000
45.020	1619.000
45.080	1508.000
45.140	1246.000
45.200	935.000
45.260	741.000
45.320	660.000
45.380	631.000
45.440	625.000
45.500	680.000
45.560	804.000
45.620	960.000
45.680	1055.000
45.740	993.000
45.800	820.000
45.860	700.000
45.920	582.000
45.980	559.000
46.040	508.000
46.100	538.000
46.160	539.000
46.220	540.000
46.280	548.000
46.340	547.000
46.400	544.000
46.460	554.000
46.520	549.000
46.580	552.000
46.640	549.000
46.700	595.000
46.760	668.000
46.820	720.000
46.880	714.000
46.940	710.000
47.000	663.000
47.060	785.000
47.120	940.000
47.180	1025.000
47.240	1036.000
47.300	1094.000
47.360	1056.000
47.420	1076.000
47.480	1052.000
47.540	978.000
47.600	1031.000
47.660	950.000
47.720	915.000
47.780	845.000
47.840	756.000
47.900	698.000
47.960	636.000
48.020	633.000
48.080	618.000
48.140	688.000
48.200	838.000
48.260	1104.000
48.320	1061.000
48.380	944.000
48.440	796.000
48.500	697.000
48.560	660.000
48.620	731.000
48.680	1030.000
48.740	726.000
48.800	833.000
48.860	719.000
48.920	713.000
48.980	831.000
49.040	1047.000
49.100	1375.000
49.160	1831.000
49.220	1838.000
49.280	1717.000
49.340	1504.000
49.400	1230.000
49.460	1068.000
49.520	911.000
49.580	822.000
49.640	774.000
49.700	686.000
49.760	664.000
49.820	666.000
49.880	610.000
49.940	612.000
50.000	621.000
50.060	629.000
50.120	671.000
50.180	654.000
50.240	765.000
50.300	869.000
50.360	986.000
50.420	1024.000
50.480	1030.000
50.540	1022.000
50.600	961.000
50.660	937.000
50.720	867.000
50.780	793.000
50.840	734.000
50.900	700.000
50.960	673.000
51.020	641.000
51.080	613.000
51.140	601.000
51.200	646.000
51.260	639.000
51.320	638.000
51.380	623.000
51.440	581.000
51.500	612.000
51.560	597.000
51.620	661.000
51.680	673.000
51.740	820.000
51.800	1018.000
51.860	1170.000
51.920	1168.000
51.980	1195.000
52.040	1095.000
52.100	1024.000
52.160	877.000
52.220	836.000
52.280	832.000
52.340	954.000
52.400	925.000
52.460	837.000
52.520	803.000
52.580	731.000
52.640	688.000
52.700	700.000
52.760	742.000
52.820	771.000
52.880	830.000
52.940	878.000
53.000	926.000
53.060	1044.000
53.120	1241.000
53.180	1788.000
53.240	2603.000
53.300	3389.000
53.360	3250.000
53.420	2712.000
53.480	2112.000
53.540	1529.000
53.600	1016.000
53.660	798.000
53.720	704.000
53.780	665.000
53.840	619.000
53.900	685.000
53.960	656.000
54.020	672.000
54.080	670.000
54.140	692.000
54.200	643.000
54.260	615.000
54.320	605.000
54.380	575.000
54.440	602.000
54.500	602.000
54.560	583.000
54.620	584.000
54.680	596.000
54.740	574.000
54.800	612.000
54.860	597.000
54.920	624.000
54.980	682.000
55.040	762.000
55.100	943.000
55.160	1184.000
55.220	1523.000
55.280	1600.000
55.340	1361.000
55.400	1188.000
55.460	974.000
55.520	755.000
55.580	657.000
55.640	631.000
55.700	656.000
55.760	657.000
55.820	682.000
55.880	774.000
55.940	826.000
56.000	1011.000
56.060	1191.000
56.120	1315.000
56.180	1271.000
56.240	1141.000
56.300	1038.000
56.360	978.000
56.420	929.000
56.480	939.000
56.540	1012.000
56.600	1185.000
56.660	1262.000
56.720	1187.000
56.780	1083.000
56.840	963.000
56.900	865.000
56.960	704.000
57.020	635.000
57.080	581.000
57.140	617.000
57.200	627.000
57.260	707.000
57.320	629.000
57.380	637.000
57.440	610.000
57.500	573.000
57.560	574.000
57.620	528.000
57.680	514.000
57.740	539.000
57.800	541.000
57.860	552.000
57.920	547.000
57.980	534.000
58.040	546.000
58.100	582.000
58.160	628.000
58.220	754.000
58.280	704.000
58.340	705.000
58.400	762.000
58.460	748.000
58.520	715.000
58.580	688.000
58.640	745.000
58.700	695.000
58.760	736.000
58.820	716.000
58.880	721.000
58.940	740.000
59.000	802.000
59.060	818.000
59.120	787.000
59.180	734.000
59.240	738.000
59.300	714.000
59.360	749.000
59.420	672.000
59.480	651.000
59.540	624.000
59.600	626.000
59.660	579.000
59.720	611.000
59.780	599.000
59.840	591.000
59.900	631.000
59.960	627.000
60.020	672.000
60.080	720.000
60.140	710.000
60.200	678.000
60.260	679.000
60.320	705.000
60.380	698.000
60.440	697.000
60.500	737.000
60.560	777.000
60.620	865.000
60.680	977.000
60.740	1121.000
60.800	1243.000
60.860	1152.000
60.920	1053.000
60.980	936.000
61.040	850.000
61.100	735.000
61.160	676.000
61.220	637.000
61.280	632.000
61.340	643.000
61.400	653.000
61.460	675.000
61.520	683.000
61.580	667.000
61.640	720.000
61.700	823.000
61.760	915.000
61.820	941.000
61.880	974.000
61.940	972.000
62.000	1009.000
62.060	916.000
62.120	905.000
62.180	939.000
62.240	966.000
62.300	1046.000
62.360	1081.000
62.420	1192.000
62.480	1290.000
62.540	1461.000
62.600	1633.000
62.660	1689.000
62.720	1788.000
62.780	1561.000
62.840	1328.000
62.900	1137.000
62.960	1023.000
63.020	849.000
63.080	783.000
63.140	779.000
63.200	850.000
63.260	936.000
63.320	1041.000
63.380	1020.000
63.440	1035.000
63.500	970.000
63.560	926.000
63.620	822.000
63.680	814.000
63.740	811.000
63.800	944.000
63.860	1185.000
63.920	1512.000
63.980	1517.000
64.040	1362.000
64.100	1276.000
64.160	1120.000
64.220	912.000
64.280	804.000
64.340	749.000
64.400	734.000
64.460	741.000
64.520	782.000
64.580	760.000
64.640	706.000
64.700	689.000
64.760	679.000
64.820	688.000
64.880	700.000
64.940	708.000
65.000	803.000
65.060	1019.000
65.120	1216.000
65.180	1183.000
65.240	1004.000
65.300	1033.000
65.360	920.000
65.420	818.000
65.480	757.000
65.540	748.000
65.600	767.000
65.660	792.000
65.720	859.000
65.780	889.000
65.840	875.000
65.900	932.000
65.960	1016.000
66.020	1065.000
66.080	1246.000
66.140	1375.000
66.200	1622.000
66.260	1800.000
66.320	1706.000
66.380	1548.000
66.440	1502.000
66.500	1444.000
66.560	1325.000
66.620	1213.000
66.680	1040.000
66.740	978.000
66.800	887.000
66.860	843.000
66.920	808.000
66.980	798.000
67.040	869.000
67.100	970.000
67.160	1048.000
67.220	1091.000
67.280	1064.000
67.340	1003.000
67.400	942.000
67.460	859.000
67.520	768.000
67.580	732.000
67.640	675.000
67.700	669.000
67.760	716.000
67.820	801.000
67.880	908.000
67.940	1168.000
68.000	1477.000
68.060	1365.000
68.120	1016.000
68.180	1045.000
68.240	999.000
68.300	737.000
68.360	660.000
68.420	626.000
68.480	622.000
68.540	589.000
68.600	600.000
68.660	571.000
68.720	552.000
68.780	564.000
68.840	585.000
68.900	560.000
68.960	581.000
69.020	570.000
69.080	604.000
69.140	639.000
69.200	658.000
69.260	666.000
69.320	636.000
69.380	625.000
69.440	623.000
69.500	599.000
69.560	601.000
69.620	574.000
69.680	627.000
69.740	602.000
69.800	632.000
69.860	646.000
69.920	717.000
69.980	692.000
70.040	721.000
70.100	724.000
70.160	693.000
70.220	713.000
70.280	698.000
70.340	676.000
70.400	665.000
70.460	625.000
70.520	611.000
70.580	567.000
70.640	607.000
70.700	578.000
70.760	582.000
70.820	577.000
70.880	580.000
70.940	554.000
71.000	578.000
71.060	541.000
71.120	562.000
71.180	577.000
71.240	541.000
71.300	545.000
71.360	542.000
71.420	552.000
71.480	536.000
71.540	537.000
71.600	523.000
71.660	530.000
71.720	544.000
71.780	559.000
71.840	564.000
71.900	548.000
71.960	523.000
72.020	515.000
72.080	544.000
72.140	546.000
72.200	563.000
72.260	611.000
72.320	633.000
72.380	587.000
72.440	575.000
72.500	567.000
72.560	628.000
72.620	624.000
72.680	642.000
72.740	679.000
72.800	671.000
72.860	786.000
72.920	814.000
72.980	818.000
73.040	825.000
73.100	828.000
73.160	827.000
73.220	813.000
73.280	761.000
73.340	711.000
73.400	654.000
73.460	625.000
73.520	623.000
73.580	587.000
73.640	585.000
73.700	570.000
73.760	604.000
73.820	580.000
73.880	590.000
73.940	614.000
74.000	631.000
74.060	652.000
74.120	678.000
74.180	681.000
74.240	707.000
74.300	718.000
74.360	788.000
74.420	770.000
74.480	797.000
74.540	847.000
74.600	818.000
74.660	785.000
74.720	783.000
74.780	751.000
74.840	784.000
74.900	725.000
74.960	708.000
75.020	677.000
75.080	683.000
75.140	754.000
75.200	718.000
75.260	724.000
75.320	731.000
75.380	742.000
75.440	703.000
75.500	711.000
75.560	682.000
75.620	690.000
75.680	696.000
75.740	624.000
75.800	669.000
75.860	653.000
75.920	637.000
75.980	646.000
76.040	600.000
76.100	614.000
76.160	589.000
76.220	592.000
76.280	607.000
76.340	592.000
76.400	594.000
76.460	608.000
76.520	606.000
76.580	603.000
76.640	637.000
76.700	652.000
76.760	689.000
76.820	684.000
76.880	693.000
76.940	709.000
77.000	685.000
77.060	655.000
77.120	675.000
77.180	673.000
77.240	658.000
77.300	699.000
77.360	636.000
77.420	659.000
77.480	658.000
77.540	634.000
77.600	638.000
77.660	633.000
77.720	641.000
77.780	632.000
77.840	650.000
77.900	669.000
77.960	712.000
78.020	783.000
78.080	850.000
78.140	736.000
78.200	726.000
78.260	689.000
78.320	744.000
78.380	725.000
78.440	648.000
78.500	668.000
78.560	629.000
78.620	653.000
78.680	668.000
78.740	569.000
78.800	601.000
78.860	553.000
78.920	574.000
78.980	582.000
79.040	546.000
79.100	543.000
79.160	542.000
79.220	537.000
79.280	535.000
79.340	543.000
79.400	564.000
79.460	525.000
79.520	529.000
79.580	526.000
79.640	563.000
79.700	594.000
79.760	565.000
79.820	574.000
79.880	562.000
79.940	561.000
80.000	558.000
80.060	568.000
80.120	564.000
80.180	577.000
80.240	641.000
80.300	642.000
80.360	662.000
80.420	661.000
80.480	632.000
80.540	623.000
80.600	609.000
80.660	594.000
80.720	583.000
80.780	565.000
80.840	545.000
80.900	516.000
80.960	521.000
81.020	574.000
81.080	530.000
81.140	547.000
81.200	561.000
81.260	544.000
81.320	552.000
81.380	557.000
81.440	576.000
81.500	559.000
81.560	619.000
81.620	669.000
81.680	670.000
81.740	630.000
81.800	691.000
81.860	638.000
81.920	642.000
81.980	691.000
82.040	670.000
82.100	695.000
82.160	655.000
82.220	662.000
82.280	657.000
82.340	635.000
82.400	587.000
82.460	628.000
82.520	663.000
82.580	702.000
82.640	786.000
82.700	789.000
82.760	759.000
82.820	731.000
82.880	702.000
82.940	717.000
83.000	770.000
83.060	676.000
83.120	643.000
83.180	614.000
83.240	633.000
83.300	671.000
83.360	670.000
83.420	663.000
83.480	652.000
83.540	658.000
83.600	703.000
83.660	704.000
83.720	732.000
83.780	731.000
83.840	737.000
83.900	803.000
83.960	828.000
84.020	811.000
84.080	774.000
84.140	789.000
84.200	782.000
84.260	788.000
84.320	788.000
84.380	827.000
84.440	785.000
84.500	823.000
84.560	796.000
84.620	830.000
84.680	852.000
84.740	861.000
84.800	871.000
84.860	855.000
84.920	892.000
84.980	843.000
85.040	780.000
85.100	752.000
85.160	733.000
85.220	712.000
85.280	647.000
85.340	644.000
85.400	592.000
85.460	568.000
85.520	578.000
85.580	614.000
85.640	636.000
85.700	630.000
85.760	585.000
85.820	587.000
85.880	586.000
85.940	599.000
86.000	634.000
86.060	607.000
86.120	618.000
86.180	587.000
86.240	666.000
86.300	673.000
86.360	677.000
86.420	697.000
86.480	709.000
86.540	703.000
86.600	754.000
86.660	744.000
86.720	692.000
86.780	747.000
86.840	766.000
86.900	750.000
86.960	735.000
87.020	705.000
87.080	682.000
87.140	681.000
87.200	659.000
87.260	677.000
87.320	669.000
87.380	663.000
87.440	678.000
87.500	694.000
87.560	639.000
87.620	657.000
87.680	672.000
87.740	656.000
87.800	676.000
87.860	689.000
87.920	602.000
87.980	667.000
88.040	633.000
88.100	632.000
88.160	629.000
88.220	630.000
88.280	620.000
88.340	621.000
88.400	640.000
88.460	662.000
88.520	651.000
88.580	644.000
88.640	680.000
88.700	709.000
88.760	723.000
88.820	750.000
88.880	786.000
88.940	798.000
89.000	798.000
89.060	801.000
89.120	786.000
89.180	785.000
89.240	723.000
89.300	713.000
89.360	734.000
89.420	742.000
89.480	694.000
89.540	654.000
89.600	656.000
89.660	763.000
89.720	776.000
89.780	686.000
89.840	704.000
89.900	710.000
89.960	788.000
90.000	788.000