File: xrd/previousNaming/ZnOCuCl2_before.xy
3	272
3.08	245
3.16	210
3.24	226
3.32	180
3.4	201
3.48	220
3.56	177
3.64	210
3.72	193
3.8	186
3.88	194
3.96	187
4.04	198
4.12	199
4.2	173
4.28	207
4.36	202
4.44	181
4.52	200
4.6	227
4.68	212
4.76	213
4.84	241
4.92	225
5	202
5.08	230
5.16	222
5.24	249
5.32	255
5.4	239
5.48	230
5.56	246
5.64	266
5.72	283
5.8	282
5.88	271
5.96	265
6.04	272
6.12	258
6.2	261
6.28	253
6.36	280
6.44	276
6.52	280
6.6	313
6.68	299
6.76	288
6.84	286
6.92	334
7	303
7.08	306
7.16	312
7.24	320
7.32	357
7.4	341
7.48	363
7.56	354
7.64	356
7.72	362
7.8	346
7.88	363
7.96	369
8.04	341
8.12	354
8.2	384
8.28	431
8.36	397
8.44	432
8.52	434
8.6	363
8.68	425
8.76	425
8.84	387
8.92	435
9	418
9.08	497
9.16	410
9.24	480
9.32	491
9.4	444
9.48	504
9.56	503
9.64	489
9.72	478
9.8	521
9.88	532
9.96	497
10.04	528
10.12	532
10.2	521
10.28	543
10.36	544
10.44	521
10.52	548
10.6	589
10.68	541
10.76	559
10.84	539
10.92	596
11	608
11.08	618
11.16	611
11.24	711
11.32	788
11.4	1031
11.48	1184
11.56	1233
11.64	1093
11.72	909
11.8	772
11.88	733
11.96	701
12.04	750
12.12	731
12.2	731
12.28	729
12.36	764
12.44	773
12.52	790
12.6	705
12.68	733
12.76	744
12.84	711
12.92	761
13	826
13.08	780
13.16	816
13.24	730
13.32	805
13.4	744
13.48	811
13.56	787
13.64	758
13.72	752
13.8	692
13.88	723
13.96	786
14.04	819
14.12	714
14.2	789
14.28	769
14.36	713
14.44	727
14.52	756
14.6	734
14.68	789
14.76	773
14.84	742
14.92	695
15	732
15.08	743
15.16	739
15.24	763
15.32	715
15.4	788
15.48	777
15.56	769
15.64	751
15.72	807
15.8	830
15.88	916
15.96	1074
16.04	1215
16.12	1706
16.2	2075
16.28	2327
16.36	2300
16.44	1901
16.52	1475
16.6	1213
16.68	1130
16.76	1036
16.84	957
16.92	898
17	884
17.08	827
17.16	874
17.24	820
17.32	880
17.4	924
17.48	919
17.56	911
17.64	934
17.72	865
17.8	886
17.88	890
17.96	823
18.04	821
18.12	762
18.2	756
18.28	742
18.36	742
18.44	753
18.52	710
18.6	736
18.68	785
18.76	731
18.84	761
18.92	772
19	754
19.08	764
19.16	696
19.24	715
19.32	705
19.4	687
19.48	702
19.56	655
19.64	678
19.72	709
19.8	672
19.88	672
19.96	635
20.04	624
20.12	678
20.2	687
20.28	648
20.36	695
20.44	597
20.52	652
20.6	624
20.68	647
20.76	661
20.84	658
20.92	656
21	668
21.08	651
21.16	682
21.24	681
21.32	691
21.4	692
21.48	705
21.56	712
21.64	679
21.72	716
21.8	731
21.88	766
21.96	711
22.04	694
22.12	709
22.2	726
22.28	711
22.36	730
22.44	760
22.52	764
22.6	752
22.68	805
22.76	957
22.84	1308
22.92	1787
23	2219
23.08	2545
23.16	2234
23.24	1643
23.32	1086
23.4	844
23.48	746
23.56	716
23.64	732
23.72	792
23.8	701
23.88	771
23.96	750
24.04	742
24.12	804
24.2	765
24.28	734
24.36	680
24.44	712
24.52	735
24.6	735
24.68	721
24.76	744
24.84	731
24.92	767
25	761
25.08	785
25.16	799
25.24	785
25.32	809
25.4	824
25.48	764
25.56	768
25.64	829
25.72	821
25.8	747
25.88	843
25.96	906
26.04	875
26.12	973
26.2	939
26.28	921
26.36	865
26.44	874
26.52	884
26.6	892
26.68	860
26.76	917
26.84	808
26.92	854
27	805
27.08	872
27.16	841
27.24	824
27.32	835
27.4	908
27.48	832
27.56	921
27.64	855
27.72	857
27.8	898
27.88	835
27.96	878
28.04	892
28.12	874
28.2	930
28.28	985
28.36	1045
28.44	983
28.52	879
28.6	876
28.68	945
28.76	879
28.84	981
28.92	972
29	931
29.08	981
29.16	945
29.24	899
29.32	990
29.4	969
29.48	918
29.56	961
29.64	1015
29.72	1003
29.8	963
29.88	1071
29.96	1080
30.04	1081
30.12	1084
30.2	1027
30.28	1066
30.36	1106
30.44	1155
30.52	1275
30.6	1340
30.68	1411
30.76	1406
30.84	1354
30.92	1427
31	1452
31.08	1483
31.16	1628
31.24	1688
31.32	1698
31.4	1778
31.48	1831
31.56	2014
31.64	1969
31.72	1937
31.8	1909
31.88	1933
31.96	2072
32.04	2270
32.12	2532
32.2	2908
32.28	3383
32.36	3647
32.44	3727
32.52	3335
32.6	3004
32.68	2541
32.76	2426
32.84	2212
32.92	2224
33	2110
33.08	2122
33.16	1901
33.24	1854
33.32	1516
33.4	1352
33.48	1437
33.56	1558
33.64	1795
33.72	2031
33.8	2246
33.88	2016
33.96	1681
34.04	1371
34.12	1223
34.2	1131
34.28	1234
34.36	1194
34.44	1188
34.52	1217
34.6	1236
34.68	1194
34.76	1226
34.84	1262
34.92	1319
35	1451
35.08	1458
35.16	1482
35.24	1464
35.32	1371
35.4	1361
35.48	1327
35.56	1264
35.64	1209
35.72	1224
35.8	1245
35.88	1200
35.96	1237
36.04	1218
36.12	1181
36.2	1169
36.28	1325
36.36	1453
36.44	1420
36.52	1336
36.6	1276
36.68	1265
36.76	1173
36.84	1260
36.92	1198
37	1200
37.08	1213
37.16	1210
37.24	1179
37.32	1148
37.4	1231
37.48	1236
37.56	1209
37.64	1248
37.72	1196
37.8	1262
37.88	1355
37.96	1430
38.04	1764
38.12	2249
38.2	2921
38.28	3407
38.36	3513
38.44	2942
38.52	2292
38.6	1782
38.68	1394
38.76	1466
38.84	1478
38.92	1535
39	1481
39.08	1657
39.16	1748
39.24	1838
39.32	2160
39.4	2503
39.48	2835
39.56	3164
39.64	3459
39.72	3978
39.8	3819
39.88	3780
39.96	3280
40.04	2692
40.12	2287
40.2	1941
40.28	1857
40.36	1609
40.44	1626
40.52	1508
40.6	1560
40.68	1534
40.76	1440
40.84	1483
40.92	1388
41	1388
41.08	1361
41.16	1258
41.24	1339
41.32	1366
41.4	1271
41.48	1253
41.56	1223
41.64	1290
41.72	1269
41.8	1308
41.88	1262
41.96	1289
42.04	1352
42.12	1315
42.2	1365
42.28	1380
42.36	1359
42.44	1424
42.52	1403
42.6	1443
42.68	1562
42.76	1583
42.84	1855
42.92	1932
43	1871
43.08	1774
43.16	1683
43.24	1589
43.32	1438
43.4	1394
43.48	1409
43.56	1399
43.64	1336
43.72	1331
43.8	1290
43.88	1348
43.96	1368
44.04	1376
44.12	1391
44.2	1453
44.28	1456
44.36	1472
44.44	1473
44.52	1526
44.6	1425
44.68	1461
44.76	1366
44.84	1486
44.92	1448
45	1410
45.08	1388
45.16	1456
45.24	1377
45.32	1515
45.4	1478
45.48	1519
45.56	1554
45.64	1661
45.72	1655
45.8	1575
45.88	1514
45.96	1452
46.04	1452
46.12	1405
46.2	1442
46.28	1419
46.36	1371
46.44	1407
46.52	1385
46.6	1397
46.68	1424
46.76	1536
46.84	1580
46.92	1603
47	1602
47.08	1628
47.16	1651
47.24	1598
47.32	1619
47.4	1500
47.48	1465
47.56	1490
47.64	1475
47.72	1515
47.8	1488
47.88	1522
47.96	1496
48.04	1355
48.12	1462
48.2	1507
48.28	1371
48.36	1536
48.44	1480
48.52	1502
48.6	1486
48.68	1389
48.76	1450
48.84	1439
48.92	1391
49	1386
49.08	1433
49.16	1409
49.24	1476
49.32	1526
49.4	1520
49.48	1634
49.56	1654
49.64	1619
49.72	1783
49.8	1853
49.88	2003
49.96	2112
50.04	2184
50.12	2174
50.2	2119
50.28	1991
50.36	1949
50.44	1853
50.52	1741
50.6	1660
50.68	1574
50.76	1587
50.84	1592
50.92	1586
51	1554
51.08	1515
51.16	1538
51.24	1453
51.32	1518
51.4	1529
51.48	1599
51.56	1652
51.64	1765
51.72	1743
51.8	1741
51.88	1715
51.96	1657
52.04	1581
52.12	1640
52.2	1636
52.28	1675
52.36	1745
52.44	1590
52.52	1623
52.6	1543
52.68	1542
52.76	1640
52.84	1667
52.92	1688
53	1705
53.08	1791
53.16	1814
53.24	1916
53.32	2036
53.4	2188
53.48	2133
53.56	2225
53.64	2115
53.72	2083
53.8	1992
53.88	1769
53.96	1711
54.04	1731
54.12	1696
54.2	1661
54.28	1588
54.36	1606
54.44	1640
54.52	1602
54.6	1605
54.68	1600
54.76	1691
54.84	1713
54.92	1750
55	1781
55.08	1681
55.16	1707
55.24	1746
55.32	1582
55.4	1607
55.48	1502
55.56	1479
55.64	1484
55.72	1525
55.8	1518
55.88	1539
55.96	1529
56.04	1606
56.12	1543
56.2	1722
56.28	1684
56.36	1675
56.44	1745
56.52	1725
56.6	1663
56.68	1724
56.76	1688
56.84	1603
56.92	1569
57	1613
57.08	1557
57.16	1580
57.24	1568
57.32	1543
57.4	1531
57.48	1597
57.56	1521
57.64	1481
57.72	1464
57.8	1501
57.88	1472
57.96	1474
58.04	1502
58.12	1481
58.2	1542
58.28	1589
58.36	1547
58.44	1721
58.52	1798
58.6	1953
58.68	1940
58.76	1867
58.84	1791
58.92	1691
59	1494
59.08	1540
59.16	1450
59.24	1498
59.32	1569
59.4	1486
59.48	1472
59.56	1548
59.64	1607
59.72	1617
59.8	1694
59.88	1744
59.96	1848
60.04	1883
60.12	1764
60.2	1668
60.28	1539
60.36	1510
60.44	1546
60.52	1561
60.6	1524
60.68	1580
60.76	1697
60.84	1677
60.92	1675
61	1700
61.08	1758
61.16	1808
61.24	1893
61.32	1835
61.4	1865
61.48	1847
61.56	1769
61.64	1799
61.72	1860
61.8	1875
61.88	1950
61.96	1935
62.04	1852
62.12	1903
62.2	1811
62.28	1750
62.36	1619
62.44	1668
62.52	1582
62.6	1552
62.68	1609
62.76	1558
62.84	1508
62.92	1545
63	1540
63.08	1577
63.16	1483
63.24	1574
63.32	1456
63.4	1509
63.48	1527
63.56	1578
63.64	1517
63.72	1589
63.8	1614
63.88	1580
63.96	1624
64.04	1622
64.12	1542
64.2	1507
64.28	1518
64.36	1584
64.44	1500
64.52	1451
64.6	1439
64.68	1493
64.76	1516
64.84	1536
64.92	1509
65	1478
65.08	1475
65.16	1479
65.24	1494
65.32	1498
65.4	1464
65.48	1477
65.56	1519
65.64	1550
65.72	1554
65.8	1571
65.88	1452
65.96	1529
66.04	1499
66.12	1436
66.2	1530
66.28	1433
66.36	1358
66.44	1471
66.52	1410
66.6	1454
66.68	1503
66.76	1441
66.84	1442
66.92	1527
67	1508
67.08	1536
67.16	1471
67.24	1562
67.32	1551
67.4	1578
67.48	1678
67.56	1689
67.64	1748
67.72	1812
67.8	1754
67.88	1828
67.96	1763
68.04	1765
68.12	1732
68.2	1699
68.28	1679
68.36	1778
68.44	1932
68.52	1859
68.6	1938
68.68	1864
68.76	1804
68.84	1789
68.92	1706
69	1688
69.08	1697
69.16	1666
69.24	1674
69.32	1784
69.4	1692
69.48	1660
69.56	1762
69.64	1678
69.72	1590
69.8	1629
69.88	1518
69.96	1534
70.04	1482
70.12	1455
70.2	1473
70.28	1495
70.36	1462
70.44	1448
70.52	1404
70.6	1367
70.68	1373
70.76	1476
70.84	1385
70.92	1436
71	1464
71.08	1512
71.16	1433
71.24	1468
71.32	1402
71.4	1477
71.48	1486
71.56	1402
71.64	1446
71.72	1461
71.8	1389
71.88	1407
71.96	1492
72.04	1528
72.12	1450
72.2	1489
72.28	1499
72.36	1493
72.44	1503
72.52	1473
72.6	1450
72.68	1472
72.76	1455
72.84	1422
72.92	1514
73	1487
73.08	1446
73.16	1554
73.24	1529
73.32	1562
73.4	1572
73.48	1518
73.56	1580
73.64	1595
73.72	1483
73.8	1589
73.88	1586
73.96	1585
74.04	1592
74.12	1487
74.2	1584
74.28	1578
74.36	1560
74.44	1658
74.52	1593
74.6	1558
74.68	1579
74.76	1494
74.84	1515
74.92	1457
75	1454
75.08	1504
75.16	1436
75.24	1450
75.32	1529
75.4	1478
75.48	1527
75.56	1457
75.64	1469
75.72	1492
75.8	1441
75.88	1504
75.96	1528
76.04	1549
76.12	1547
76.2	1531
76.28	1624
76.36	1562
76.44	1523
76.52	1556
76.6	1496
76.68	1550
76.76	1503
76.84	1389
76.92	1535
77	1434
77.08	1460
77.16	1512
77.24	1471
77.32	1437
77.4	1416
77.48	1473
77.56	1478
77.64	1453
77.72	1415
77.8	1436
77.88	1454
77.96	1391
78.04	1378
78.12	1495
78.2	1467
78.28	1391
78.36	1401
78.44	1389
78.52	1444
78.6	1401
78.68	1412
78.76	1354
78.84	1388
78.92	1317
79	1265
79.08	1355
79.16	1321
79.24	1314
79.32	1309
79.4	1380
79.48	1354
79.56	1310
79.64	1343
79.72	1342
79.8	1332
79.88	1318
79.96	1259
80.04	1282
80.12	1333
80.2	1368
80.28	1326
80.36	1336
80.44	1359
80.52	1296
80.6	1358
80.68	1318
80.76	1322
80.84	1322
80.92	1322
81	1418
81.08	1428
81.16	1305
81.24	1346
81.32	1376
81.4	1441
81.48	1386
81.56	1363
81.64	1383
81.72	1358
81.8	1360
81.88	1419
81.96	1312
82.04	1397
82.12	1410
82.2	1414
82.28	1372
82.36	1358
82.44	1358
82.52	1362
82.6	1422
82.68	1323
82.76	1340
82.84	1358
82.92	1312
83	1368
83.08	1372
83.16	1400
83.24	1297
83.32	1314
83.4	1332
83.48	1347
83.56	1319
83.64	1410
83.72	1404
83.8	1359
83.88	1330
83.96	1424
84.04	1325
84.12	1380
84.2	1349
84.28	1394
84.36	1406
84.44	1346
84.52	1409
84.6	1341
84.68	1339
84.76	1347
84.84	1359
84.92	1412
85	1403
85.08	1423
85.16	1389
85.24	1383
85.32	1418
85.4	1374
85.48	1364
85.56	1385
85.64	1451
85.72	1383
85.8	1363
85.88	1472
85.96	1476
86.04	1410
86.12	1417
86.2	1387
86.28	1529
86.36	1383
86.44	1424
86.52	1418
86.6	1404
86.68	1326
86.76	1457
86.84	1368
86.92	1430
87	1405
87.08	1460
87.16	1373
87.24	1474
87.32	1398
87.4	1512
87.48	1463
87.56	1546
87.64	1494
87.72	1443
87.8	1419
87.88	1424
87.96	1432
88.04	1463
88.12	1495
88.2	1434
88.28	1440
88.36	1448
88.44	1464
88.52	1494
88.6	1412
88.68	1427
88.76	1460
88.84	1428
88.92	1392
89	1366
89.08	1375
89.16	1394
89.24	1352
89.32	1350
89.4	1369
89.48	1328
89.56	1332
89.64	1366
89.72	1370
89.8	1375
89.88	1369
89.96	1429
90.04	1406
90.12	1372
90.2	1351
90.28	1377
90.36	1377
90.44	1385
90.52	1322
90.6	1336
90.68	1345
90.76	1404
90.84	1291
90.92	1365
91	1390
91.08	1371
91.16	1351
91.24	1386
91.32	1394
91.4	1340
91.48	1367
91.56	1328
91.64	1410
91.72	1372
91.8	1338
91.88	1498
91.96	1463
92.04	1426
92.12	1391
92.2	1428
92.28	1447
92.36	1458
92.44	1456
92.52	1469
92.6	1478
92.68	1422
92.76	1426
92.84	1469
92.92	1529
93	1422
93.08	1419
93.16	1423
93.24	1442
93.32	1336
93.4	1473
93.48	1357
93.56	1492
93.64	1401
93.72	1427
93.8	1391
93.88	1383
93.96	1454
94.04	1356
94.12	1354
94.2	1413
94.28	1396
94.36	1380
94.44	1359
94.52	1408
94.6	1415
94.68	1384
94.76	1341
94.84	1391
94.92	1427
95	1383
95.08	1409
95.16	1404
95.24	1381
95.32	1377
95.4	1391
95.48	1354
95.56	1354
95.64	1360
95.72	1365
95.8	1365
95.88	1353
95.96	1339
96.04	1361
96.12	1360
96.2	1391
96.28	1355
96.36	1353
96.44	1403
96.52	1362
96.6	1350
96.68	1388
96.76	1405
96.84	1470
96.92	1402
97	1344
97.08	1448
97.16	1440
97.24	1436
97.32	1472
97.4	1462
97.48	1393
97.56	1428
97.64	1402
97.72	1396
97.8	1466
97.88	1471
97.96	1375
98.04	1365
98.12	1493
98.2	1382
98.28	1368
98.36	1423
98.44	1335
98.52	1478
98.6	1397
98.68	1470
98.76	1422
98.84	1429
98.92	1307
99	1333
99.08	1382
99.16	1383
99.24	1437
99.32	1362
99.4	1385
99.48	1394
99.56	1454
99.64	1411
99.72	1372
99.8	1450
99.88	1423
99.96	1433
100	1437