File: xrd/previousNaming/ZnOCuCl2_550.xy
5.000	2637.500
5.060	2658.333
5.120	2500.000
5.180	2500.000
5.240	2670.833
5.300	2458.333
5.360	2650.000
5.420	2650.000
5.480	2550.000
5.540	2579.167
5.600	2300.000
5.660	2495.833
5.720	2441.667
5.780	2429.167
5.840	2433.333
5.900	2300.000
5.960	2475.000
6.020	2512.500
6.080	2437.500
6.140	2408.333
6.200	2270.833
6.260	2275.000
6.320	2383.333
6.380	2275.000
6.440	2387.500
6.500	2354.167
6.560	2408.333
6.620	2370.833
6.680	2229.167
6.740	2362.500
6.800	2270.833
6.860	2366.667
6.920	2416.667
6.980	2308.333
7.040	2245.833
7.100	2429.167
7.160	2287.500
7.220	2329.167
7.280	2250.000
7.340	2350.000
7.400	2187.500
7.460	2304.167
7.520	2379.167
7.580	2295.833
7.640	2225.000
7.700	2245.833
7.760	2191.667
7.820	2283.333
7.880	2266.667
7.940	2366.667
8.000	2225.000
8.060	2200.000
8.120	2166.667
8.180	2287.500
8.240	2270.833
8.300	2250.000
8.360	2212.500
8.420	2308.333
8.480	2379.167
8.540	2337.500
8.600	2287.500
8.660	2287.500
8.720	2300.000
8.780	2325.000
8.840	2345.833
8.900	2204.167
8.960	2400.000
9.020	2437.500
9.080	2254.167
9.140	2350.000
9.200	2316.667
9.260	2320.833
9.320	2245.833
9.380	2279.167
9.440	2341.667
9.500	2216.667
9.560	2383.333
9.620	2387.500
9.680	2325.000
9.740	2337.500
9.800	2350.000
9.860	2400.000
9.920	2275.000
9.980	2375.000
10.040	2404.167
10.100	2312.500
10.160	2345.833
10.220	2366.667
10.280	2391.667
10.340	2441.667
10.400	2458.333
10.460	2483.333
10.520	2387.500
10.580	2420.833
10.640	2508.333
10.700	2470.833
10.760	2437.500
10.820	2558.333
10.880	2316.667
10.940	2487.500
11.000	2508.333
11.060	2495.833
11.120	2454.167
11.180	2566.667
11.240	2520.833
11.300	2637.500
11.360	2508.333
11.420	2533.333
11.480	2529.167
11.540	2550.000
11.600	2554.167
11.660	2529.167
11.720	2666.667
11.780	2537.500
11.840	2683.333
11.900	2604.167
11.960	2587.500
12.020	2533.333
12.080	2520.833
12.140	2741.667
12.200	2616.667
12.260	2716.667
12.320	2587.500
12.380	2641.667
12.440	2712.500
12.500	2666.667
12.560	2687.500
12.620	2641.667
12.680	2695.833
12.740	2616.667
12.800	2741.667
12.860	2729.167
12.920	2620.833
12.980	2683.333
13.040	2766.667
13.100	2604.167
13.160	2633.333
13.220	2679.167
13.280	2658.333
13.340	2662.500
13.400	2687.500
13.460	2666.667
13.520	2716.667
13.580	2695.833
13.640	2558.333
13.700	2666.667
13.760	2800.000
13.820	2675.000
13.880	2662.500
13.940	2641.667
14.000	2583.333
14.060	2845.833
14.120	2829.167
14.180	2741.667
14.240	2866.667
14.300	2787.500
14.360	2791.667
14.420	2637.500
14.480	2833.333
14.540	2875.000
14.600	2933.333
14.660	2870.833
14.720	3033.333
14.780	2883.333
14.840	2987.500
14.900	2887.500
14.960	2995.833
15.020	3233.333
15.080	3370.833
15.140	4062.500
15.200	5866.667
15.260	7354.167
15.320	6654.167
15.380	4670.833
15.440	3591.667
15.500	3183.333
15.560	2920.833
15.620	2995.833
15.680	3020.833
15.740	3079.167
15.800	2833.333
15.860	2970.833
15.920	2954.167
15.980	2895.833
16.040	3108.333
16.100	2908.333
16.160	2870.833
16.220	3012.500
16.280	2858.333
16.340	2945.833
16.400	2912.500
16.460	2829.167
16.520	2766.667
16.580	2879.167
16.640	2883.333
16.700	3033.333
16.760	2841.667
16.820	2866.667
16.880	2912.500
16.940	3050.000
17.000	2904.167
17.060	3020.833
17.120	3108.333
17.180	2920.833
17.240	2945.833
17.300	2866.667
17.360	2987.500
17.420	2966.667
17.480	3033.333
17.540	3004.167
17.600	3012.500
17.660	3045.833
17.720	2820.833
17.780	3091.667
17.840	2879.167
17.900	3000.000
17.960	2945.833
18.020	3200.000
18.080	3041.667
18.140	2862.500
18.200	3125.000
18.260	2950.000
18.320	3075.000
18.380	3258.333
18.440	3229.167
18.500	3500.000
18.560	3570.833
18.620	3595.833
18.680	3695.833
18.740	4441.667
18.800	6750.000
18.860	12887.500
18.920	23104.167
18.980	20945.833
19.040	10725.000
19.100	5608.333
19.160	4137.500
19.220	3787.500
19.280	3654.167
19.340	3433.333
19.400	3408.333
19.460	3091.667
19.520	3229.167
19.580	3125.000
19.640	3333.333
19.700	3245.833
19.760	3154.167
19.820	3150.000
19.880	3037.500
19.940	3079.167
20.000	3175.000
20.060	3212.500
20.120	3329.167
20.180	3133.333
20.240	3291.667
20.300	3187.500
20.360	3100.000
20.420	3104.167
20.480	3141.667
20.540	3150.000
20.600	3258.333
20.660	3195.833
20.720	3091.667
20.780	3208.333
20.840	3266.667
20.900	3170.833
20.960	3137.500
21.020	3250.000
21.080	3212.500
21.140	3254.167
21.200	3120.833
21.260	3150.000
21.320	3275.000
21.380	3245.833
21.440	3204.167
21.500	3341.667
21.560	3204.167
21.620	3225.000
21.680	3237.500
21.740	3212.500
21.800	3304.167
21.860	3300.000
21.920	3295.833
21.980	3229.167
22.040	3166.667
22.100	3254.167
22.160	3204.167
22.220	3216.667
22.280	3170.833
22.340	3441.667
22.400	3320.833
22.460	3237.500
22.520	3462.500
22.580	3404.167
22.640	3487.500
22.700	3645.833
22.760	3808.333
22.820	4100.000
22.880	4437.500
22.940	4687.500
23.000	5800.000
23.060	6600.000
23.120	6858.333
23.180	7258.333
23.240	7291.667
23.300	7104.167
23.360	7016.667
23.420	7962.500
23.480	10683.333
23.540	13291.667
23.600	12829.167
23.660	10416.667
23.720	8712.500
23.780	8400.000
23.840	9770.833
23.900	12737.500
23.960	13312.500
24.020	9625.000
24.080	6179.167
24.140	4670.833
24.200	4416.667
24.260	4195.833
24.320	4050.000
24.380	3845.833
24.440	3770.833
24.500	3937.500
24.560	3729.167
24.620	3920.833
24.680	3708.333
24.740	3883.333
24.800	3812.500
24.860	4029.167
24.920	4083.333
24.980	4000.000
25.040	4066.667
25.100	4170.833
25.160	4366.667
25.220	4708.333
25.280	4941.667
25.340	5733.333
25.400	5991.667
25.460	7350.000
25.520	8362.500
25.580	9425.000
25.640	10191.667
25.700	10612.500
25.760	9004.167
25.820	7100.000
25.880	5408.333
25.940	4545.833
26.000	4229.167
26.060	3737.500
26.120	3812.500
26.180	3987.500
26.240	3712.500
26.300	3629.167
26.360	3650.000
26.420	3662.500
26.480	3645.833
26.540	3783.333
26.600	3670.833
26.660	3783.333
26.720	3887.500
26.780	3770.833
26.840	3954.167
26.900	3812.500
26.960	3687.500
27.020	3675.000
27.080	3604.167
27.140	3691.667
27.200	3579.167
27.260	3604.167
27.320	3566.667
27.380	3616.667
27.440	3633.333
27.500	3650.000
27.560	3587.500
27.620	3504.167
27.680	3608.333
27.740	3645.833
27.800	3704.167
27.860	3587.500
27.920	3612.500
27.980	3708.333
28.040	3808.333
28.100	3795.833
28.160	3841.667
28.220	3920.833
28.280	3966.667
28.340	4020.833
28.400	4091.667
28.460	4250.000
28.520	4337.500
28.580	4983.333
28.640	5841.667
28.700	6770.833
28.760	8075.000
28.820	9854.167
28.880	10933.333
28.940	12150.000
29.000	12758.333
29.060	12395.833
29.120	11816.667
29.180	11141.667
29.240	9745.833
29.300	8954.167
29.360	8675.000
29.420	7862.500
29.480	7041.667
29.540	6891.667
29.600	6125.000
29.660	6141.667
29.720	6016.667
29.780	5979.167
29.840	6104.167
29.900	6720.833
29.960	7908.333
30.020	12237.500
30.080	18191.667
30.140	21291.667
30.200	18816.667
30.260	14712.500
30.320	10791.667
30.380	8537.500
30.440	7270.833
30.500	6587.500
30.560	6104.167
30.620	6275.000
30.680	6337.500
30.740	7412.500
30.800	8437.500
30.860	10220.833
30.920	11462.500
30.980	11354.167
31.040	10879.167
31.100	10812.500
31.160	10812.500
31.220	12237.500
31.280	13925.000
31.340	15929.167
31.400	16700.000
31.460	15141.667
31.520	12475.000
31.580	11050.000
31.640	10654.167
31.700	11762.500
31.760	12195.833
31.820	12120.833
31.880	11258.333
31.940	9000.000
32.000	7258.333
32.060	5741.667
32.120	4754.167
32.180	4641.667
32.240	4591.667
32.300	4920.833
32.360	5412.500
32.420	7041.667
32.480	6441.667
32.540	5487.500
32.600	4462.500
32.660	3962.500
32.720	4004.167
32.780	3800.000
32.840	3879.167
32.900	3741.667
32.960	3870.833
33.020	3804.167
33.080	3708.333
33.140	3762.500
33.200	3945.833
33.260	3933.333
33.320	3916.667
33.380	3679.167
33.440	3837.500
33.500	3637.500
33.560	3737.500
33.620	3691.667
33.680	3979.167
33.740	3916.667
33.800	3816.667
33.860	4004.167
33.920	3766.667
33.980	3933.333
34.040	3762.500
34.100	4000.000
34.160	3912.500
34.220	3929.167
34.280	4016.667
34.340	3908.333
34.400	4250.000
34.460	4308.333
34.520	4441.667
34.580	4516.667
34.640	4479.167
34.700	4704.167
34.760	4837.500
34.820	4929.167
34.880	4891.667
34.940	5083.333
35.000	5233.333
35.060	5629.167
35.120	5987.500
35.180	6562.500
35.240	7645.833
35.300	11620.833
35.360	17895.833
35.420	28108.333
35.480	33170.833
35.540	24933.333
35.600	16683.333
35.660	11579.167
35.720	10962.500
35.780	10762.500
35.840	10520.833
35.900	9345.833
35.960	8350.000
36.020	7258.333
36.080	6875.000
36.140	6750.000
36.200	7750.000
36.260	9833.333
36.320	11408.333
36.380	10908.333
36.440	9504.167
36.500	9895.833
36.560	11883.333
36.620	14133.333
36.680	13491.667
36.740	10387.500
36.800	7500.000
36.860	5795.833
36.920	4704.167
36.980	4650.000
37.040	4425.000
37.100	4245.833
37.160	4225.000
37.220	4129.167
37.280	4108.333
37.340	4220.833
37.400	4254.167
37.460	4233.333
37.520	4175.000
37.580	4245.833
37.640	4233.333
37.700	4170.833
37.760	4487.500
37.820	4412.500
37.880	4400.000
37.940	4741.667
38.000	4770.833
38.060	4833.333
38.120	5404.167
38.180	5662.500
38.240	5983.333
38.300	6191.667
38.360	7320.833
38.420	9629.167
38.480	14100.000
38.540	19500.000
38.600	23837.500
38.660	24945.833
38.720	19445.833
38.780	14445.833
38.840	10550.000
38.900	8570.833
38.960	7308.333
39.020	6083.333
39.080	5291.667
39.140	5008.333
39.200	4662.500
39.260	4545.833
39.320	4450.000
39.380	4150.000
39.440	4079.167
39.500	4170.833
39.560	4229.167
39.620	4575.000
39.680	4666.667
39.740	4733.333
39.800	4662.500
39.860	4970.833
39.920	4908.333
39.980	5308.333
40.040	5362.500
40.100	5300.000
40.160	5183.333
40.220	5258.333
40.280	4787.500
40.340	4691.667
40.400	4537.500
40.460	4445.833
40.520	4329.167
40.580	4479.167
40.640	4112.500
40.700	4216.667
40.760	4470.833
40.820	4566.667
40.880	5000.000
40.940	6275.000
41.000	7929.167
41.060	8179.167
41.120	7308.333
41.180	6508.333
41.240	5108.333
41.300	4695.833
41.360	4241.667
41.420	4316.667
41.480	4220.833
41.540	3954.167
41.600	3958.333
41.660	3983.333
41.720	3991.667
41.780	4095.833
41.840	4212.500
41.900	4191.667
41.960	4183.333
42.020	4591.667
42.080	4383.333
42.140	4575.000
42.200	4895.833
42.260	4812.500
42.320	5162.500
42.380	5112.500
42.440	5225.000
42.500	5670.833
42.560	5950.000
42.620	6070.833
42.680	5962.500
42.740	6183.333
42.800	5700.000
42.860	5387.500
42.920	5100.000
42.980	4962.500
43.040	5054.167
43.100	5116.667
43.160	5066.667
43.220	5295.833
43.280	5191.667
43.340	5012.500
43.400	4970.833
43.460	4695.833
43.520	4520.833
43.580	4787.500
43.640	4429.167
43.700	4545.833
43.760	4208.333
43.820	4520.833
43.880	4450.000
43.940	4258.333
44.000	4304.167
44.060	3983.333
44.120	4225.000
44.180	4116.667
44.240	4079.167
44.300	4204.167
44.360	3962.500
44.420	4283.333
44.480	4441.667
44.540	4620.833
44.600	4933.333
44.660	5012.500
44.720	5158.333
44.780	5341.667
44.840	5454.167
44.900	5679.167
44.960	6229.167
45.020	6445.833
45.080	6504.167
45.140	6100.000
45.200	5691.667
45.260	4945.833
45.320	4933.333
45.380	4695.833
45.440	4825.000
45.500	4791.667
45.560	4787.500
45.620	4962.500
45.680	4816.667
45.740	4700.000
45.800	4608.333
45.860	4291.667
45.920	4266.667
45.980	4170.833
46.040	4079.167
46.100	4100.000
46.160	4316.667
46.220	4187.500
46.280	4070.833
46.340	4075.000
46.400	4095.833
46.460	3912.500
46.520	4012.500
46.580	4045.833
46.640	4095.833
46.700	4191.667
46.760	4358.333
46.820	4287.500
46.880	4525.000
46.940	4487.500
47.000	4604.167
47.060	4825.000
47.120	4995.833
47.180	5083.333
47.240	5183.333
47.300	5241.667
47.360	5362.500
47.420	5170.833
47.480	5008.333
47.540	5141.667
47.600	5250.000
47.660	4754.167
47.720	4916.667
47.780	4816.667
47.840	4475.000
47.900	4566.667
47.960	4487.500
48.020	4554.167
48.080	4704.167
48.140	4875.000
48.200	5008.333
48.260	5366.667
48.320	5670.833
48.380	5595.833
48.440	5479.167
48.500	5516.667
48.560	5850.000
48.620	6475.000
48.680	6970.833
48.740	6795.833
48.800	6579.167
48.860	6112.500
48.920	5929.167
48.980	6416.667
49.040	6504.167
49.100	6929.167
49.160	6887.500
49.220	6612.500
49.280	6262.500
49.340	6000.000
49.400	5716.667
49.460	5512.500
49.520	5195.833
49.580	5179.167
49.640	5129.167
49.700	4929.167
49.760	4858.333
49.820	4695.833
49.880	4704.167
49.940	4775.000
50.000	4679.167
50.060	4754.167
50.120	4720.833
50.180	4662.500
50.240	4787.500
50.300	4879.167
50.360	4858.333
50.420	4950.000
50.480	4920.833
50.540	4733.333
50.600	4891.667
50.660	4929.167
50.720	4766.667
50.780	4670.833
50.840	4679.167
50.900	4604.167
50.960	4583.333
51.020	4545.833
51.080	4595.833
51.140	4554.167
51.200	4558.333
51.260	4662.500
51.320	4675.000
51.380	4662.500
51.440	4587.500
51.500	4491.667
51.560	4612.500
51.620	4841.667
51.680	5037.500
51.740	5208.333
51.800	5462.500
51.860	5416.667
51.920	5458.333
51.980	5658.333
52.040	5533.333
52.100	5525.000
52.160	5641.667
52.220	5412.500
52.280	5537.500
52.340	5775.000
52.400	5604.167
52.460	5770.833
52.520	5400.000
52.580	5395.833
52.640	5612.500
52.700	5437.500
52.760	5362.500
52.820	5825.000
52.880	5891.667
52.940	6145.833
53.000	6441.667
53.060	7212.500
53.120	8216.667
53.180	9475.000
53.240	10875.000
53.300	12258.333
53.360	13250.000
53.420	13120.833
53.480	11662.500
53.540	10075.000
53.600	8070.833
53.660	6712.500
53.720	6029.167
53.780	5287.500
53.840	5091.667
53.900	4804.167
53.960	4750.000
54.020	4600.000
54.080	4466.667
54.140	4437.500
54.200	4408.333
54.260	4333.333
54.320	4100.000
54.380	4179.167
54.440	4187.500
54.500	4179.167
54.560	4337.500
54.620	4300.000
54.680	4275.000
54.740	4637.500
54.800	4733.333
54.860	4991.667
54.920	5045.833
54.980	5325.000
55.040	5825.000
55.100	6012.500
55.160	6379.167
55.220	6579.167
55.280	6395.833
55.340	6404.167
55.400	5975.000
55.460	5625.000
55.520	5158.333
55.580	4958.333
55.640	5000.000
55.700	4904.167
55.760	4958.333
55.820	5129.167
55.880	5204.167
55.940	5533.333
56.000	5487.500
56.060	5875.000
56.120	5866.667
56.180	5933.333
56.240	5854.167
56.300	5795.833
56.360	5691.667
56.420	5387.500
56.480	5470.833
56.540	5387.500
56.600	5633.333
56.660	5650.000
56.720	5420.833
56.780	5433.333
56.840	5183.333
56.900	4750.000
56.960	4466.667
57.020	4441.667
57.080	4416.667
57.140	4437.500
57.200	4291.667
57.260	4275.000
57.320	4137.500
57.380	4108.333
57.440	4179.167
57.500	4204.167
57.560	3954.167
57.620	3929.167
57.680	3941.667
57.740	3804.167
57.800	4041.667
57.860	3962.500
57.920	4120.833
57.980	4387.500
58.040	4345.833
58.100	4579.167
58.160	4837.500
58.220	4929.167
58.280	5158.333
58.340	5120.833
58.400	5208.333
58.460	5062.500
58.520	4658.333
58.580	4583.333
58.640	4679.167
58.700	4412.500
58.760	4445.833
58.820	4454.167
58.880	4604.167
58.940	4516.667
59.000	4612.500
59.060	4516.667
59.120	4587.500
59.180	4562.500
59.240	4520.833
59.300	4462.500
59.360	4508.333
59.420	4441.667
59.480	4500.000
59.540	4416.667
59.600	4187.500
59.660	4312.500
59.720	4225.000
59.780	4375.000
59.840	4200.000
59.900	4116.667
59.960	4050.000
60.020	4087.500
60.080	4229.167
60.140	4212.500
60.200	4370.833
60.260	4404.167
60.320	4245.833
60.380	4420.833
60.440	4475.000
60.500	4616.667
60.560	4862.500
60.620	4975.000
60.680	5370.833
60.740	5750.000
60.800	5720.833
60.860	5783.333
60.920	5754.167
60.980	5479.167
61.040	5575.000
61.100	5416.667
61.160	5450.000
61.220	5170.833
61.280	5254.167
61.340	5491.667
61.400	6520.833
61.460	7029.167
61.520	6437.500
61.580	6545.833
61.640	6270.833
61.700	5904.167
61.760	5487.500
61.820	5300.000
61.880	5187.500
61.940	5495.833
62.000	5258.333
62.060	5429.167
62.120	5450.000
62.180	5595.833
62.240	5741.667
62.300	6016.667
62.360	6270.833
62.420	6745.833
62.480	6737.500
62.540	7366.667
62.600	7716.667
62.660	7766.667
62.720	7504.167
62.780	7150.000
62.840	6716.667
62.900	6520.833
62.960	6050.000
63.020	6016.667
63.080	5645.833
63.140	5612.500
63.200	5616.667
63.260	5804.167
63.320	5770.833
63.380	5620.833
63.440	5487.500
63.500	5379.167
63.560	5166.667
63.620	5300.000
63.680	5066.667
63.740	5479.167
63.800	5691.667
63.860	6112.500
63.920	6320.833
63.980	6483.333
64.040	6450.000
64.100	6170.833
64.160	6108.333
64.220	5937.500
64.280	5525.000
64.340	5387.500
64.400	5258.333
64.460	5045.833
64.520	4925.000
64.580	4879.167
64.640	4995.833
64.700	4875.000
64.760	4720.833
64.820	4875.000
64.880	4879.167
64.940	5104.167
65.000	5170.833
65.060	5612.500
65.120	6300.000
65.180	6020.833
65.240	5879.167
65.300	6075.000
65.360	5920.833
65.420	5787.500
65.480	5887.500
65.540	6316.667
65.600	6800.000
65.660	7241.667
65.720	7779.167
65.780	7808.333
65.840	7766.667
65.900	7866.667
65.960	7979.167
66.020	7837.500
66.080	8412.500
66.140	9050.000
66.200	9016.667
66.260	8916.667
66.320	8733.333
66.380	8212.500
66.440	7537.500
66.500	7129.167
66.560	6637.500
66.620	6400.000
66.680	5779.167
66.740	5566.667
66.800	5420.833
66.860	5287.500
66.920	5270.833
66.980	5120.833
67.040	5133.333
67.100	5279.167
67.160	5166.667
67.220	5420.833
67.280	5283.333
67.340	5300.000
67.400	5287.500
67.460	5154.167
67.520	5233.333
67.580	5458.333
67.640	5354.167
67.700	5679.167
67.760	6091.667
67.820	6575.000
67.880	7191.667
67.940	8408.333
68.000	9579.167
68.060	8866.667
68.120	7662.500
68.180	7487.500
68.240	6837.500
68.300	5954.167
68.360	4829.167
68.420	4750.000
68.480	4362.500
68.540	4333.333
68.600	4116.667
68.660	4200.000
68.720	4183.333
68.780	4154.167
68.840	4208.333
68.900	4179.167
68.960	4241.667
69.020	4229.167
69.080	4275.000
69.140	4212.500
69.200	4337.500
69.260	4345.833
69.320	4166.667
69.380	4095.833
69.440	4170.833
69.500	4150.000
69.560	4195.833
69.620	4325.000
69.680	4120.833
69.740	4229.167
69.800	4158.333
69.860	4354.167
69.920	4170.833
69.980	4329.167
70.040	4325.000
70.100	4383.333
70.160	4345.833
70.220	4283.333
70.280	4337.500
70.340	4391.667
70.400	4212.500
70.460	4379.167
70.520	4108.333
70.580	4079.167
70.640	3920.833
70.700	4212.500
70.760	4066.667
70.820	3975.000
70.880	4054.167
70.940	4170.833
71.000	3883.333
71.060	3975.000
71.120	4075.000
71.180	3920.833
71.240	3887.500
71.300	4154.167
71.360	4020.833
71.420	3875.000
71.480	4041.667
71.540	4170.833
71.600	4012.500
71.660	4004.167
71.720	3987.500
71.780	3950.000
71.840	4104.167
71.900	3966.667
71.960	3883.333
72.020	3870.833
72.080	4170.833
72.140	4337.500
72.200	4379.167
72.260	4570.833
72.320	4520.833
72.380	4687.500
72.440	4254.167
72.500	4654.167
72.560	4495.833
72.620	4520.833
72.680	4716.667
72.740	4600.000
72.800	4633.333
72.860	4895.833
72.920	4683.333
72.980	4925.000
73.040	4837.500
73.100	4958.333
73.160	4725.000
73.220	4620.833
73.280	4562.500
73.340	4504.167
73.400	4329.167
73.460	4375.000
73.520	4204.167
73.580	4091.667
73.640	4362.500
73.700	4179.167
73.760	4133.333
73.820	4175.000
73.880	4395.833
73.940	4191.667
74.000	4345.833
74.060	4287.500
74.120	4358.333
74.180	4366.667
74.240	4400.000
74.300	4437.500
74.360	4379.167
74.420	4604.167
74.480	4800.000
74.540	4633.333
74.600	5016.667
74.660	4970.833
74.720	4845.833
74.780	5025.000
74.840	5158.333
74.900	5379.167
74.960	5391.667
75.020	5270.833
75.080	5783.333
75.140	6062.500
75.200	5679.167
75.260	5354.167
75.320	5320.833
75.380	5216.667
75.440	4900.000
75.500	4641.667
75.560	4616.667
75.620	4258.333
75.680	4425.000
75.740	4145.833
75.800	4291.667
75.860	4325.000
75.920	4387.500
75.980	4141.667
76.040	4100.000
76.100	4258.333
76.160	4191.667
76.220	4108.333
76.280	4408.333
76.340	4245.833
76.400	4200.000
76.460	4395.833
76.520	4279.167
76.580	4350.000
76.640	4179.167
76.700	4295.833
76.760	4229.167
76.820	4375.000
76.880	4333.333
76.940	4433.333
77.000	4345.833
77.060	4250.000
77.120	4325.000
77.180	4250.000
77.240	4233.333
77.300	4462.500
77.360	4070.833
77.420	4250.000
77.480	4212.500
77.540	4416.667
77.600	4337.500
77.660	4175.000
77.720	4316.667
77.780	4412.500
77.840	4562.500
77.900	4612.500
77.960	4650.000
78.020	4733.333
78.080	4658.333
78.140	4654.167
78.200	4408.333
78.260	4612.500
78.320	4600.000
78.380	4358.333
78.440	4304.167
78.500	4400.000
78.560	4112.500
78.620	4291.667
78.680	4204.167
78.740	4041.667
78.800	4133.333
78.860	3929.167
78.920	4112.500
78.980	4104.167
79.040	3958.333
79.100	3883.333
79.160	4058.333
79.220	3866.667
79.280	4045.833
79.340	3866.667
79.400	3920.833
79.460	3775.000
79.520	3883.333
79.580	3991.667
79.640	3916.667
79.700	3900.000
79.760	4012.500
79.820	4104.167
79.880	3995.833
79.940	4133.333
80.000	4341.667
80.060	4345.833
80.120	4245.833
80.180	4220.833
80.240	4316.667
80.300	4241.667
80.360	4120.833
80.420	4212.500
80.480	4041.667
80.540	4120.833
80.600	3925.000
80.660	4137.500
80.720	4154.167
80.780	4033.333
80.840	3879.167
80.900	3966.667
80.960	3891.667
81.020	3879.167
81.080	3912.500
81.140	4000.000
81.200	4045.833
81.260	3954.167
81.320	3858.333
81.380	3783.333
81.440	4104.167
81.500	4087.500
81.560	4070.833
81.620	4366.667
81.680	4362.500
81.740	4475.000
81.800	4441.667
81.860	4312.500
81.920	4412.500
81.980	4329.167
82.040	4116.667
82.100	4379.167
82.160	4308.333
82.220	4545.833
82.280	4645.833
82.340	4662.500
82.400	4641.667
82.460	4675.000
82.520	4704.167
82.580	4900.000
82.640	4841.667
82.700	4900.000
82.760	5100.000
82.820	4841.667
82.880	5070.833
82.940	4937.500
83.000	4883.333
83.060	4720.833
83.120	4770.833
83.180	4620.833
83.240	4558.333
83.300	4575.000
83.360	4362.500
83.420	4570.833
83.480	4812.500
83.540	4662.500
83.600	4741.667
83.660	4570.833
83.720	4720.833
83.780	4820.833
83.840	4691.667
83.900	4600.000
83.960	4758.333
84.020	4608.333
84.080	4650.000
84.140	4645.833
84.200	4716.667
84.260	4662.500
84.320	4658.333
84.380	4616.667
84.440	4587.500
84.500	4812.500
84.560	4770.833
84.620	4683.333
84.680	4808.333
84.740	4762.500
84.800	4633.333
84.860	4637.500
84.920	4616.667
84.980	4520.833
85.040	4629.167
85.100	4375.000
85.160	4654.167
85.220	4404.167
85.280	4366.667
85.340	4295.833
85.400	4183.333
85.460	4295.833
85.520	4187.500
85.580	4058.333
85.640	4183.333
85.700	4262.500
85.760	4304.167
85.820	4183.333
85.880	4237.500
85.940	4433.333
86.000	4337.500
86.060	4191.667
86.120	4116.667
86.180	4470.833
86.240	4341.667
86.300	4370.833
86.360	4245.833
86.420	4583.333
86.480	4391.667
86.540	4620.833
86.600	4387.500
86.660	4437.500
86.720	4666.667
86.780	4437.500
86.840	4762.500
86.900	4491.667
86.960	4470.833
87.020	4629.167
87.080	4329.167
87.140	4537.500
87.200	4583.333
87.260	4395.833
87.320	4512.500
87.380	4237.500
87.440	4420.833
87.500	4387.500
87.560	4387.500
87.620	4095.833
87.680	4266.667
87.740	4250.000
87.800	4375.000
87.860	4395.833
87.920	4404.167
87.980	4350.000
88.040	4583.333
88.100	4479.167
88.160	4241.667
88.220	4233.333
88.280	4404.167
88.340	4379.167
88.400	4220.833
88.460	4512.500
88.520	4270.833
88.580	4325.000
88.640	4587.500
88.700	4704.167
88.760	4708.333
88.820	4595.833
88.880	4808.333
88.940	4758.333
89.000	4883.333
89.060	5070.833
89.120	5100.000
89.180	4895.833
89.240	4891.667
89.300	4883.333
89.360	4925.000
89.420	4962.500
89.480	5333.333
89.540	5287.500
89.600	5550.000
89.660	5662.500
89.720	6004.167
89.780	5637.500
89.840	5612.500
89.900	5200.000
89.960	5270.833
90.000	5270.833