File: xrd/previousNaming/ZnOFeCl3_550.xy
5.000	5875.000
5.060	5495.833
5.120	5720.833
5.180	5504.167
5.240	5629.167
5.300	5550.000
5.360	5487.500
5.420	5383.333
5.480	5687.500
5.540	5654.167
5.600	5483.333
5.660	5408.333
5.720	5108.333
5.780	5325.000
5.840	5441.667
5.900	5454.167
5.960	5400.000
6.020	5195.833
6.080	5387.500
6.140	5350.000
6.200	5433.333
6.260	5608.333
6.320	5462.500
6.380	5500.000
6.440	5387.500
6.500	5220.833
6.560	5237.500
6.620	5337.500
6.680	5312.500
6.740	5345.833
6.800	5583.333
6.860	5554.167
6.920	5312.500
6.980	5262.500
7.040	5195.833
7.100	5512.500
7.160	5495.833
7.220	5320.833
7.280	5345.833
7.340	5366.667
7.400	5383.333
7.460	5362.500
7.520	5287.500
7.580	5300.000
7.640	5508.333
7.700	5583.333
7.760	5462.500
7.820	5483.333
7.880	5383.333
7.940	5466.667
8.000	5216.667
8.060	5254.167
8.120	5512.500
8.180	5575.000
8.240	5437.500
8.300	5525.000
8.360	5666.667
8.420	5320.833
8.480	5358.333
8.540	5491.667
8.600	5408.333
8.660	5354.167
8.720	5491.667
8.780	5279.167
8.840	5491.667
8.900	5395.833
8.960	5375.000
9.020	5645.833
9.080	5566.667
9.140	5708.333
9.200	5429.167
9.260	5495.833
9.320	5679.167
9.380	5620.833
9.440	5654.167
9.500	5300.000
9.560	5525.000
9.620	5645.833
9.680	5770.833
9.740	5491.667
9.800	5666.667
9.860	5704.167
9.920	5754.167
9.980	5708.333
10.040	5662.500
10.100	5754.167
10.160	5812.500
10.220	5741.667
10.280	5925.000
10.340	5937.500
10.400	6025.000
10.460	5720.833
10.520	5783.333
10.580	6045.833
10.640	6091.667
10.700	5870.833
10.760	6104.167
10.820	5945.833
10.880	6162.500
10.940	6129.167
11.000	6062.500
11.060	6129.167
11.120	6320.833
11.180	6291.667
11.240	6279.167
11.300	6250.000
11.360	6341.667
11.420	6516.667
11.480	6487.500
11.540	6154.167
11.600	6316.667
11.660	6262.500
11.720	6458.333
11.780	6525.000
11.840	6320.833
11.900	6470.833
11.960	6337.500
12.020	6387.500
12.080	6416.667
12.140	6787.500
12.200	6658.333
12.260	6716.667
12.320	6741.667
12.380	6570.833
12.440	6733.333
12.500	6870.833
12.560	6666.667
12.620	6320.833
12.680	6579.167
12.740	6712.500
12.800	6691.667
12.860	6741.667
12.920	6758.333
12.980	6825.000
13.040	6808.333
13.100	7004.167
13.160	7004.167
13.220	6975.000
13.280	6695.833
13.340	6962.500
13.400	6875.000
13.460	7008.333
13.520	6945.833
13.580	6962.500
13.640	6845.833
13.700	6950.000
13.760	7183.333
13.820	6937.500
13.880	6991.667
13.940	7016.667
14.000	6858.333
14.060	7050.000
14.120	7108.333
14.180	7195.833
14.240	7054.167
14.300	7104.167
14.360	7216.667
14.420	7070.833
14.480	7116.667
14.540	7245.833
14.600	7300.000
14.660	7108.333
14.720	7304.167
14.780	7229.167
14.840	6987.500
14.900	7112.500
14.960	7229.167
15.020	7191.667
15.080	7375.000
15.140	7450.000
15.200	7216.667
15.260	7291.667
15.320	7316.667
15.380	7462.500
15.440	7229.167
15.500	7287.500
15.560	7533.333
15.620	7454.167
15.680	7387.500
15.740	7445.833
15.800	7362.500
15.860	7575.000
15.920	7679.167
15.980	7495.833
16.040	7287.500
16.100	7450.000
16.160	7358.333
16.220	7591.667
16.280	7695.833
16.340	7541.667
16.400	7520.833
16.460	7512.500
16.520	7595.833
16.580	7487.500
16.640	7554.167
16.700	7566.667
16.760	7650.000
16.820	7616.667
16.880	7504.167
16.940	7441.667
17.000	7600.000
17.060	7725.000
17.120	7804.167
17.180	7904.167
17.240	7762.500
17.300	7637.500
17.360	7833.333
17.420	8062.500
17.480	7566.667
17.540	8025.000
17.600	8004.167
17.660	7762.500
17.720	7983.333
17.780	7695.833
17.840	7712.500
17.900	7908.333
17.960	7950.000
18.020	7887.500
18.080	8387.500
18.140	8504.167
18.200	8087.500
18.260	8062.500
18.320	8120.833
18.380	8025.000
18.440	7916.667
18.500	7875.000
18.560	8029.167
18.620	8050.000
18.680	8137.500
18.740	7908.333
18.800	8129.167
18.860	7916.667
18.920	8020.833
18.980	8287.500
19.040	8029.167
19.100	8125.000
19.160	8195.833
19.220	8070.833
19.280	8375.000
19.340	8208.333
19.400	8145.833
19.460	8316.667
19.520	8245.833
19.580	8083.333
19.640	8158.333
19.700	8387.500
19.760	8112.500
19.820	8529.167
19.880	8366.667
19.940	8345.833
20.000	8300.000
20.060	8233.333
20.120	8175.000
20.180	8466.667
20.240	8162.500
20.300	8491.667
20.360	8533.333
20.420	8462.500
20.480	8520.833
20.540	8416.667
20.600	8162.500
20.660	8358.333
20.720	8437.500
20.780	8254.167
20.840	8312.500
20.900	8304.167
20.960	8450.000
21.020	8562.500
21.080	8279.167
21.140	8208.333
21.200	8608.333
21.260	8375.000
21.320	8395.833
21.380	8450.000
21.440	8516.667
21.500	8633.333
21.560	8595.833
21.620	8475.000
21.680	8554.167
21.740	8541.667
21.800	8741.667
21.860	8783.333
21.920	8616.667
21.980	8516.667
22.040	8287.500
22.100	8741.667
22.160	8454.167
22.220	8362.500
22.280	8487.500
22.340	8537.500
22.400	8391.667
22.460	8458.333
22.520	8729.167
22.580	8420.833
22.640	8879.167
22.700	8837.500
22.760	8629.167
22.820	8437.500
22.880	8770.833
22.940	8645.833
23.000	8712.500
23.060	8783.333
23.120	8800.000
23.180	8766.667
23.240	8800.000
23.300	8825.000
23.360	8708.333
23.420	8870.833
23.480	8862.500
23.540	8508.333
23.600	8933.333
23.660	9050.000
23.720	9100.000
23.780	9083.333
23.840	9429.167
23.900	9720.833
23.960	11037.500
24.020	13016.667
24.080	14141.667
24.140	12516.667
24.200	10741.667
24.260	9658.333
24.320	9250.000
24.380	9245.833
24.440	9108.333
24.500	9025.000
24.560	8787.500
24.620	8945.833
24.680	9033.333
24.740	8966.667
24.800	9300.000
24.860	8883.333
24.920	9108.333
24.980	8870.833
25.040	8741.667
25.100	8870.833
25.160	8862.500
25.220	8829.167
25.280	8766.667
25.340	8850.000
25.400	8941.667
25.460	8879.167
25.520	8941.667
25.580	9212.500
25.640	9012.500
25.700	9037.500
25.760	9008.333
25.820	8883.333
25.880	8975.000
25.940	9125.000
26.000	9000.000
26.060	9100.000
26.120	9062.500
26.180	9066.667
26.240	9675.000
26.300	9066.667
26.360	9245.833
26.420	9083.333
26.480	9429.167
26.540	9150.000
26.600	9262.500
26.660	8883.333
26.720	8850.000
26.780	9016.667
26.840	9208.333
26.900	9108.333
26.960	8962.500
27.020	9137.500
27.080	9145.833
27.140	8879.167
27.200	8879.167
27.260	8995.833
27.320	9058.333
27.380	9037.500
27.440	9041.667
27.500	9075.000
27.560	9154.167
27.620	9058.333
27.680	8900.000
27.740	9125.000
27.800	9125.000
27.860	9112.500
27.920	9375.000
27.980	9112.500
28.040	9187.500
28.100	9145.833
28.160	9004.167
28.220	9258.333
28.280	9316.667
28.340	9000.000
28.400	9016.667
28.460	9104.167
28.520	9016.667
28.580	9087.500
28.640	8954.167
28.700	9225.000
28.760	8883.333
28.820	9133.333
28.880	9016.667
28.940	8908.333
29.000	9154.167
29.060	9125.000
29.120	9116.667
29.180	9120.833
29.240	9037.500
29.300	9258.333
29.360	9029.167
29.420	8995.833
29.480	9291.667
29.540	8883.333
29.600	9470.833
29.660	9404.167
29.720	9770.833
29.780	10166.667
29.840	10941.667
29.900	10216.667
29.960	9745.833
30.020	9387.500
30.080	9229.167
30.140	9175.000
30.200	9025.000
30.260	9279.167
30.320	9154.167
30.380	9266.667
30.440	9333.333
30.500	9245.833
30.560	9187.500
30.620	9191.667
30.680	9091.667
30.740	9062.500
30.800	9191.667
30.860	9016.667
30.920	9358.333
30.980	9200.000
31.040	9333.333
31.100	9216.667
31.160	9445.833
31.220	9258.333
31.280	9212.500
31.340	9250.000
31.400	9395.833
31.460	9504.167
31.520	9650.000
31.580	11079.167
31.640	16725.000
31.700	22716.667
31.760	17429.167
31.820	10645.833
31.880	9558.333
31.940	9375.000
32.000	9583.333
32.060	9425.000
32.120	9250.000
32.180	9458.333
32.240	9525.000
32.300	9416.667
32.360	9591.667
32.420	9612.500
32.480	9508.333
32.540	9583.333
32.600	9520.833
32.660	9854.167
32.720	9912.500
32.780	10325.000
32.840	10933.333
32.900	12495.833
32.960	15108.333
33.020	20833.333
33.080	25933.333
33.140	22387.500
33.200	17187.500
33.260	13533.333
33.320	11258.333
33.380	10433.333
33.440	10200.000
33.500	9658.333
33.560	9479.167
33.620	9691.667
33.680	9266.667
33.740	9558.333
33.800	9320.833
33.860	9412.500
33.920	9345.833
33.980	9362.500
34.040	9187.500
34.100	9554.167
34.160	9545.833
34.220	9675.000
34.280	10079.167
34.340	10387.500
34.400	9904.167
34.460	9712.500
34.520	9566.667
34.580	9691.667
34.640	9516.667
34.700	9604.167
34.760	9400.000
34.820	9354.167
34.880	9779.167
34.940	9554.167
35.000	10279.167
35.060	10783.333
35.120	12741.667
35.180	13662.500
35.240	13216.667
35.300	12566.667
35.360	12575.000
35.420	13783.333
35.480	17370.833
35.540	21879.167
35.600	20395.833
35.660	17479.167
35.720	13804.167
35.780	11762.500
35.840	10766.667
35.900	10062.500
35.960	10166.667
36.020	9716.667
36.080	10295.833
36.140	12045.833
36.200	11995.833
36.260	11187.500
36.320	9966.667
36.380	9416.667
36.440	9745.833
36.500	9275.000
36.560	9445.833
36.620	9341.667
36.680	9304.167
36.740	9312.500
36.800	9625.000
36.860	9362.500
36.920	9304.167
36.980	9345.833
37.040	8991.667
37.100	9170.833
37.160	9291.667
37.220	9408.333
37.280	9337.500
37.340	9275.000
37.400	9108.333
37.460	9291.667
37.520	9320.833
37.580	9070.833
37.640	9216.667
37.700	9416.667
37.760	9329.167
37.820	9466.667
37.880	9383.333
37.940	9437.500
38.000	9150.000
38.060	9550.000
38.120	9212.500
38.180	9412.500
38.240	9208.333
38.300	9233.333
38.360	9308.333
38.420	9237.500
38.480	9466.667
38.540	9245.833
38.600	9166.667
38.660	9083.333
38.720	9566.667
38.780	9279.167
38.840	9395.833
38.900	9262.500
38.960	9470.833
39.020	9441.667
39.080	9470.833
39.140	9654.167
39.200	9587.500
39.260	9516.667
39.320	9462.500
39.380	8987.500
39.440	9037.500
39.500	9295.833
39.560	9237.500
39.620	9250.000
39.680	9045.833
39.740	9358.333
39.800	9475.000
39.860	9620.833
39.920	9258.333
39.980	9308.333
40.040	9375.000
40.100	9204.167
40.160	9358.333
40.220	9175.000
40.280	9637.500
40.340	9408.333
40.400	9270.833
40.460	9616.667
40.520	9433.333
40.580	10087.500
40.640	10262.500
40.700	10891.667
40.760	12179.167
40.820	12416.667
40.880	11712.500
40.940	10729.167
41.000	10400.000
41.060	9904.167
41.120	9645.833
41.180	9437.500
41.240	9262.500
41.300	9525.000
41.360	9512.500
41.420	9512.500
41.480	9233.333
41.540	9466.667
41.600	9337.500
41.660	9270.833
41.720	9187.500
41.780	9191.667
41.840	9195.833
41.900	9420.833
41.960	9116.667
42.020	9108.333
42.080	9079.167
42.140	9295.833
42.200	9183.333
42.260	9241.667
42.320	9354.167
42.380	9341.667
42.440	9308.333
42.500	9220.833
42.560	9237.500
42.620	9362.500
42.680	9404.167
42.740	9554.167
42.800	9704.167
42.860	9720.833
42.920	9545.833
42.980	9366.667
43.040	9233.333
43.100	9270.833
43.160	9316.667
43.220	9241.667
43.280	9487.500
43.340	9337.500
43.400	9408.333
43.460	9445.833
43.520	9433.333
43.580	9537.500
43.640	9245.833
43.700	9145.833
43.760	9245.833
43.820	9262.500
43.880	9125.000
43.940	9258.333
44.000	9083.333
44.060	9250.000
44.120	9325.000
44.180	9275.000
44.240	9087.500
44.300	9354.167
44.360	9216.667
44.420	9066.667
44.480	9300.000
44.540	9079.167
44.600	9291.667
44.660	9129.167
44.720	8970.833
44.780	9262.500
44.840	9145.833
44.900	8987.500
44.960	9283.333
45.020	9004.167
45.080	9275.000
45.140	9254.167
45.200	9320.833
45.260	9450.000
45.320	9287.500
45.380	9187.500
45.440	9200.000
45.500	9208.333
45.560	9220.833
45.620	8933.333
45.680	9129.167
45.740	9287.500
45.800	8916.667
45.860	9075.000
45.920	9325.000
45.980	9120.833
46.040	9154.167
46.100	8983.333
46.160	8991.667
46.220	9400.000
46.280	9070.833
46.340	9350.000
46.400	9208.333
46.460	9008.333
46.520	9191.667
46.580	9233.333
46.640	9029.167
46.700	9179.167
46.760	9025.000
46.820	9070.833
46.880	9075.000
46.940	9154.167
47.000	9033.333
47.060	9279.167
47.120	9087.500
47.180	9054.167
47.240	9262.500
47.300	9183.333
47.360	9183.333
47.420	9779.167
47.480	9862.500
47.540	9391.667
47.600	9608.333
47.660	9245.833
47.720	9237.500
47.780	9354.167
47.840	9079.167
47.900	9337.500
47.960	9304.167
48.020	9354.167
48.080	9233.333
48.140	8912.500
48.200	9125.000
48.260	9370.833
48.320	9229.167
48.380	9233.333
48.440	9133.333
48.500	9458.333
48.560	8941.667
48.620	9341.667
48.680	9341.667
48.740	9366.667
48.800	9433.333
48.860	9441.667
48.920	9404.167
48.980	9400.000
49.040	9666.667
49.100	9566.667
49.160	10362.500
49.220	10429.167
49.280	11500.000
49.340	12933.333
49.400	13820.833
49.460	13183.333
49.520	12700.000
49.580	11316.667
49.640	10666.667
49.700	10033.333
49.760	9608.333
49.820	9987.500
49.880	9516.667
49.940	9283.333
50.000	9470.833
50.060	9120.833
50.120	9170.833
50.180	9200.000
50.240	9300.000
50.300	9312.500
50.360	9287.500
50.420	9062.500
50.480	9187.500
50.540	9087.500
50.600	9037.500
50.660	9083.333
50.720	9200.000
50.780	9150.000
50.840	9066.667
50.900	9200.000
50.960	9145.833
51.020	9275.000
51.080	9287.500
51.140	9145.833
51.200	8920.833
51.260	9304.167
51.320	9116.667
51.380	8975.000
51.440	9416.667
51.500	9125.000
51.560	9008.333
51.620	9250.000
51.680	9462.500
51.740	9337.500
51.800	9341.667
51.860	9304.167
51.920	9275.000
51.980	9145.833
52.040	9358.333
52.100	9150.000
52.160	8916.667
52.220	9262.500
52.280	8925.000
52.340	9270.833
52.400	9362.500
52.460	9154.167
52.520	9212.500
52.580	9287.500
52.640	9166.667
52.700	9291.667
52.760	9012.500
52.820	9283.333
52.880	9166.667
52.940	9354.167
53.000	9591.667
53.060	9670.833
53.120	9304.167
53.180	9458.333
53.240	9300.000
53.300	9154.167
53.360	9391.667
53.420	9408.333
53.480	9345.833
53.540	9550.000
53.600	9537.500
53.660	9908.333
53.720	10166.667
53.780	10520.833
53.840	11058.333
53.900	12612.500
53.960	14508.333
54.020	14162.500
54.080	13500.000
54.140	13008.333
54.200	11404.167
54.260	10675.000
54.320	10545.833
54.380	9704.167
54.440	9687.500
54.500	9666.667
54.560	9458.333
54.620	9187.500
54.680	9512.500
54.740	9533.333
54.800	9316.667
54.860	9208.333
54.920	9062.500
54.980	9012.500
55.040	9262.500
55.100	9450.000
55.160	9045.833
55.220	9104.167
55.280	9275.000
55.340	9145.833
55.400	8900.000
55.460	9266.667
55.520	9187.500
55.580	9283.333
55.640	9241.667
55.700	9300.000
55.760	8945.833
55.820	9316.667
55.880	9175.000
55.940	9183.333
56.000	9254.167
56.060	9308.333
56.120	9279.167
56.180	9062.500
56.240	9416.667
56.300	9408.333
56.360	9920.833
56.420	10754.167
56.480	12204.167
56.540	12279.167
56.600	10966.667
56.660	11370.833
56.720	10162.500
56.780	9762.500
56.840	9350.000
56.900	9416.667
56.960	9416.667
57.020	9395.833
57.080	9341.667
57.140	9625.000
57.200	9262.500
57.260	9512.500
57.320	9854.167
57.380	9783.333
57.440	10287.500
57.500	10266.667
57.560	10366.667
57.620	10120.833
57.680	9854.167
57.740	9612.500
57.800	9570.833
57.860	9429.167
57.920	9383.333
57.980	9179.167
58.040	9212.500
58.100	9208.333
58.160	9375.000
58.220	9254.167
58.280	9104.167
58.340	9395.833
58.400	9045.833
58.460	9108.333
58.520	9012.500
58.580	9195.833
58.640	9154.167
58.700	9012.500
58.760	8858.333
58.820	9233.333
58.880	9187.500
58.940	9300.000
59.000	8966.667
59.060	9170.833
59.120	9095.833
59.180	9091.667
59.240	9091.667
59.300	9295.833
59.360	9204.167
59.420	9283.333
59.480	9279.167
59.540	9154.167
59.600	9066.667
59.660	8925.000
59.720	9033.333
59.780	9141.667
59.840	9470.833
59.900	9058.333
59.960	9062.500
60.020	9275.000
60.080	9229.167
60.140	9129.167
60.200	8983.333
60.260	8970.833
60.320	8995.833
60.380	9075.000
60.440	9045.833
60.500	9137.500
60.560	9370.833
60.620	9212.500
60.680	9050.000
60.740	9066.667
60.800	9166.667
60.860	9437.500
60.920	9162.500
60.980	9266.667
61.040	9183.333
61.100	9129.167
61.160	9266.667
61.220	9358.333
61.280	8937.500
61.340	9079.167
61.400	9025.000
61.460	8929.167
61.520	9087.500
61.580	9375.000
61.640	9266.667
61.700	9404.167
61.760	9437.500
61.820	9658.333
61.880	9733.333
61.940	9929.167
62.000	10437.500
62.060	10666.667
62.120	10991.667
62.180	11279.167
62.240	11675.000
62.300	12775.000
62.360	13366.667
62.420	12125.000
62.480	11841.667
62.540	11429.167
62.600	10750.000
62.660	10587.500
62.720	10595.833
62.780	10550.000
62.840	9775.000
62.900	9825.000
62.960	10050.000
63.020	9479.167
63.080	9345.833
63.140	9591.667
63.200	9304.167
63.260	9458.333
63.320	9629.167
63.380	9487.500
63.440	9516.667
63.500	9425.000
63.560	9491.667
63.620	9712.500
63.680	10333.333
63.740	10291.667
63.800	10870.833
63.860	11900.000
63.920	12641.667
63.980	12316.667
64.040	11591.667
64.100	11745.833
64.160	10879.167
64.220	10387.500
64.280	10012.500
64.340	9575.000
64.400	9720.833
64.460	9516.667
64.520	9375.000
64.580	9254.167
64.640	9162.500
64.700	9095.833
64.760	9091.667
64.820	9216.667
64.880	9191.667
64.940	9225.000
65.000	9141.667
65.060	9420.833
65.120	9366.667
65.180	9250.000
65.240	9112.500
65.300	9483.333
65.360	9162.500
65.420	9141.667
65.480	9316.667
65.540	9200.000
65.600	9270.833
65.660	9466.667
65.720	9029.167
65.780	9445.833
65.840	9250.000
65.900	9187.500
65.960	9370.833
66.020	9216.667
66.080	9312.500
66.140	9320.833
66.200	9304.167
66.260	10108.333
66.320	9754.167
66.380	9304.167
66.440	9804.167
66.500	9391.667
66.560	9029.167
66.620	9200.000
66.680	9258.333
66.740	9279.167
66.800	9029.167
66.860	9220.833
66.920	8829.167
66.980	9241.667
67.040	9229.167
67.100	9237.500
67.160	9437.500
67.220	9291.667
67.280	9237.500
67.340	9137.500
67.400	9070.833
67.460	9283.333
67.520	9304.167
67.580	9091.667
67.640	9495.833
67.700	9233.333
67.760	9304.167
67.820	9483.333
67.880	9383.333
67.940	9166.667
68.000	9216.667
68.060	9270.833
68.120	9079.167
68.180	9116.667
68.240	9087.500
68.300	9150.000
68.360	9200.000
68.420	9133.333
68.480	9100.000
68.540	9258.333
68.600	9245.833
68.660	9112.500
68.720	9150.000
68.780	9141.667
68.840	9270.833
68.900	9245.833
68.960	9337.500
69.020	9695.833
69.080	9204.167
69.140	9345.833
69.200	9320.833
69.260	9050.000
69.320	8987.500
69.380	9408.333
69.440	9316.667
69.500	9441.667
69.560	9116.667
69.620	9250.000
69.680	9500.000
69.740	9316.667
69.800	9195.833
69.860	9158.333
69.920	9129.167
69.980	9354.167
70.040	9020.833
70.100	9304.167
70.160	8929.167
70.220	9012.500
70.280	9225.000
70.340	9079.167
70.400	8991.667
70.460	9166.667
70.520	9233.333
70.580	8950.000
70.640	9383.333
70.700	9025.000
70.760	9129.167
70.820	9054.167
70.880	9125.000
70.940	9208.333
71.000	9133.333
71.060	9150.000
71.120	9000.000
71.180	9333.333
71.240	9087.500
71.300	9345.833
71.360	9316.667
71.420	9020.833
71.480	9062.500
71.540	9191.667
71.600	9137.500
71.660	9583.333
71.720	9725.000
71.780	9783.333
71.840	10308.333
71.900	9937.500
71.960	9808.333
72.020	9654.167
72.080	10162.500
72.140	9616.667
72.200	9629.167
72.260	9575.000
72.320	9283.333
72.380	9383.333
72.440	9370.833
72.500	9362.500
72.560	9212.500
72.620	9237.500
72.680	9358.333
72.740	9341.667
72.800	9245.833
72.860	9300.000
72.920	9170.833
72.980	9229.167
73.040	9008.333
73.100	9325.000
73.160	9487.500
73.220	9029.167
73.280	9145.833
73.340	9429.167
73.400	9270.833
73.460	9633.333
73.520	9291.667
73.580	9300.000
73.640	9483.333
73.700	9212.500
73.760	9041.667
73.820	9158.333
73.880	9154.167
73.940	9020.833
74.000	9204.167
74.060	8987.500
74.120	8962.500
74.180	9029.167
74.240	9112.500
74.300	9062.500
74.360	8958.333
74.420	8891.667
74.480	9395.833
74.540	9129.167
74.600	9375.000
74.660	9262.500
74.720	9412.500
74.780	9066.667
74.840	9179.167
74.900	9375.000
74.960	9258.333
75.020	9375.000
75.080	9004.167
75.140	9745.833
75.200	9895.833
75.260	9570.833
75.320	9837.500
75.380	9912.500
75.440	9612.500
75.500	9670.833
75.560	9395.833
75.620	9354.167
75.680	9608.333
75.740	9258.333
75.800	9095.833
75.860	9154.167
75.920	9345.833
75.980	9304.167
76.040	9075.000
76.100	9075.000
76.160	8966.667
76.220	9150.000
76.280	9087.500
76.340	8875.000
76.400	9066.667
76.460	8929.167
76.520	8995.833
76.580	8745.833
76.640	9162.500
76.700	9116.667
76.760	9266.667
76.820	9466.667
76.880	9195.833
76.940	9512.500
77.000	9112.500
77.060	9295.833
77.120	9366.667
77.180	9129.167
77.240	9154.167
77.300	9100.000
77.360	9287.500
77.420	8916.667
77.480	8925.000
77.540	9604.167
77.600	9512.500
77.660	9133.333
77.720	9458.333
77.780	9108.333
77.840	9420.833
77.900	9195.833
77.960	9120.833
78.020	9058.333
78.080	8895.833
78.140	9041.667
78.200	9175.000
78.260	9495.833
78.320	9083.333
78.380	9054.167
78.440	9254.167
78.500	9150.000
78.560	9208.333
78.620	9279.167
78.680	9120.833
78.740	9075.000
78.800	9279.167
78.860	9029.167
78.920	9104.167
78.980	9095.833
79.040	9145.833
79.100	8962.500
79.160	9179.167
79.220	9033.333
79.280	9225.000
79.340	8962.500
79.400	9304.167
79.460	9283.333
79.520	9175.000
79.580	9283.333
79.640	8875.000
79.700	9166.667
79.760	9112.500
79.820	9316.667
79.880	9070.833
79.940	9379.167
80.000	9275.000
80.060	9362.500
80.120	8979.167
80.180	9125.000
80.240	9754.167
80.300	9433.333
80.360	9408.333
80.420	9233.333
80.480	9750.000
80.540	9479.167
80.600	9612.500
80.660	9645.833
80.720	9383.333
80.780	9337.500
80.840	9712.500
80.900	9675.000
80.960	9145.833
81.020	9158.333
81.080	9162.500
81.140	9208.333
81.200	8945.833
81.260	9166.667
81.320	9395.833
81.380	9079.167
81.440	8991.667
81.500	8687.500
81.560	9470.833
81.620	8937.500
81.680	8941.667
81.740	8945.833
81.800	9175.000
81.860	8979.167
81.920	9050.000
81.980	9112.500
82.040	9366.667
82.100	9154.167
82.160	9195.833
82.220	8962.500
82.280	9083.333
82.340	8983.333
82.400	9216.667
82.460	9666.667
82.520	9191.667
82.580	9208.333
82.640	9333.333
82.700	9337.500
82.760	9525.000
82.820	9383.333
82.880	9579.167
82.940	9487.500
83.000	9458.333
83.060	9350.000
83.120	9395.833
83.180	9308.333
83.240	9154.167
83.300	9041.667
83.360	9445.833
83.420	9162.500
83.480	9133.333
83.540	9308.333
83.600	9133.333
83.660	9120.833
83.720	9158.333
83.780	8958.333
83.840	8904.167
83.900	8883.333
83.960	9275.000
84.020	9245.833
84.080	9141.667
84.140	9125.000
84.200	9120.833
84.260	9062.500
84.320	9000.000
84.380	8991.667
84.440	9366.667
84.500	9212.500
84.560	9050.000
84.620	9333.333
84.680	9116.667
84.740	9750.000
84.800	9666.667
84.860	9704.167
84.920	9662.500
84.980	9812.500
85.040	9595.833
85.100	9933.333
85.160	9487.500
85.220	9354.167
85.280	9341.667
85.340	9166.667
85.400	9429.167
85.460	9400.000
85.520	9583.333
85.580	9054.167
85.640	9195.833
85.700	9395.833
85.760	9333.333
85.820	8675.000
85.880	9075.000
85.940	9083.333
86.000	9175.000
86.060	9387.500
86.120	9170.833
86.180	9270.833
86.240	9229.167
86.300	8858.333
86.360	9220.833
86.420	9295.833
86.480	9575.000
86.540	9129.167
86.600	9350.000
86.660	8700.000
86.720	8862.500
86.780	9100.000
86.840	9387.500
86.900	9433.333
86.960	8937.500
87.020	8866.667
87.080	9054.167
87.140	8591.667
87.200	9258.333
87.260	9095.833
87.320	9100.000
87.380	9141.667
87.440	9062.500
87.500	8970.833
87.560	8950.000
87.620	9308.333
87.680	8958.333
87.740	9162.500
87.800	9275.000
87.860	9354.167
87.920	8975.000
87.980	9329.167
88.040	9425.000
88.100	9100.000
88.160	9233.333
88.220	9379.167
88.280	9154.167
88.340	9475.000
88.400	9700.000
88.460	9829.167
88.520	9666.667
88.580	9470.833
88.640	9666.667
88.700	9612.500
88.760	9454.167
88.820	9733.333
88.880	9479.167
88.940	9575.000
89.000	9208.333
89.060	9420.833
89.120	9479.167
89.180	9233.333
89.240	9545.833
89.300	8733.333
89.360	9183.333
89.420	9195.833
89.480	9475.000
89.540	9270.833
89.600	9129.167
89.660	9570.833
89.720	9137.500
89.780	9295.833
89.840	9475.000
89.900	9191.667
89.960	8983.333
90.000	8983.333