File: xrd/raw/CuOCuCl2.asc
*TYPE		=  Raw
*CLASS		=  ASCII CLASS
*SAMPLE		=  CuOCuCl2
*COMMENT	=
*FNAME		=  CuOCuCl2_Theta_2-Theta.asc
*DATE		=  03-Mar-17 15:36

*GROUP_COUNT	=  1
*GONIO		=  MiniFlex 300/600 +, 150
*ATTACHMENT	=  ASC-6
*ASC		=  0, 0, 0.000000, 0.000000
*FILTER		=  K-beta(x2)
*C_MONOCHRO	=  None, 0.000000
*SLIT_NAME	=  0, IHS
*SLIT_NAME	=  1, DS +
*SLIT_NAME	=  2, SS
*SLIT_NAME	=  3, RS
*COUNTER	=  D/teX Ultra, 0
*POS_FORMAT	=  0
*SCAN_AXIS	=  2theta/theta
*MEAS_MODE	=  Continuous Scanning
*TARGET		=  29
*XRAY_CHAR	=  K-ALPHA
*WAVE_LENGTH1	=  1.54059
*WAVE_LENGTH2	=  1.54441
*THICKNESS	=  0, 0.000000
*MU		=  0, 0.000000
*SCAN_MODE	=  2theta/theta
*SPEED_DIM	=  sec./step
*XUNIT		=  deg.
*YUNIT		=  counts
*SCALE_MODE	=  1
*REP_COUNT	=  0
*SE_COUNT	=  0
*STD_MATERIAL	=  Unknown, Unknown, 0.000000, 0.000000, 0.000000, 0.000000, 0.000000, 0.000000
*LATT_CONS	=  0, Unknown, Unknown, 0.000000, 0.000000, 0.000000, 0.000000, 0.000000, 0.000000
*SEC_COUNT	=  1
*TSPEC_SIZE	=  0
*EXTRA_SIZE	=  0
*MEMO		=

*BEGIN
*GROUP		=  0
*START		=  5
*STOP		=  90
*STEP		=  0.02
*OFFSET		=  0.000000
*SPEED		=  0.24
*SLIT_SPEC	=  0, 10.0mm, 10, 0.000000
*SLIT_SPEC	=  1, 0.625deg, 0.625, 0.000000
*SLIT_SPEC	=  2, 13.0mm, 13, 0.000000
*SLIT_SPEC	=  3, 13.0mm, 13, 0.000000
*KV		=  40
*MA		=  15
*LOW		=  0.000000
*HIGH		=  0.000000
*CTEMPER	=  0, 0.000000
*CTEMPER	=  1, 0.000000
*CTEMPER	=  2, 0.000000
*PAREX		=  0, 0.000000
*PAREX		=  1, 0.000000
*PAREX		=  2, 0.000000
*PAREX		=  3, 0.000000
*PAREX		=  4, 0.000000
*PAREX		=  5, 0.000000
*PAREX		=  6, 0.000000
*PAREX		=  7, 0.000000
*PAREX		=  8, 0.000000
*PAREX		=  9, 0.000000
*PAREX		=  10, 0.000000
*PAREX		=  11, 0.000000
*PAREX		=  12, 0.000000
*PAREX		=  13, 0.000000
*PAREX		=  14, 0.000000
*PAREX		=  15, 0.000000
*FULL_SCALE	=  201095
*INDEX		=  0, 0, 0
*COUNT		=  4251
345, 331, 335, 338
369, 373, 336, 329
322, 359, 339, 318
321, 332, 352, 359
333, 302, 280, 267
306, 329, 319, 335
339, 319, 308, 295
294, 293, 303, 312
323, 313, 317, 323
294, 285, 306, 307
299, 302, 294, 292
279, 279, 285, 296
302, 301, 279, 290
289, 263, 267, 280
284, 294, 274, 269
274, 290, 290, 301
300, 292, 284, 272
278, 274, 280, 301
290, 279, 264, 256
269, 280, 295, 271
255, 268, 270, 264
271, 269, 268, 267
282, 284, 265, 270
273, 278, 270, 252
274, 264, 259, 268
263, 258, 261, 242
256, 280, 269, 260
252, 259, 265, 283
261, 235, 254, 280
269, 275, 279, 257
261, 276, 287, 282
273, 258, 258, 238
236, 259, 270, 257
264, 274, 260, 266
266, 257, 271, 262
289, 290, 251, 250
269, 257, 237, 244
284, 282, 269, 270
256, 248, 243, 263
261, 249, 250, 254
263, 266, 265, 261
262, 237, 273, 306
270, 259, 248, 237
247, 275, 274, 266
276, 260, 252, 238
267, 271, 269, 271
271, 263, 270, 276
262, 276, 264, 250
254, 264, 274, 255
246, 269, 276, 267
286, 281, 267, 272
272, 250, 260, 270
272, 255, 259, 281
269, 246, 247, 280
275, 291, 301, 286
286, 251, 261, 278
259, 272, 270, 284
279, 274, 263, 277
266, 266, 268, 264
286, 281, 270, 277
277, 289, 277, 272
270, 268, 263, 262
277, 270, 268, 283
271, 274, 266, 264
279, 288, 272, 269
266, 271, 271, 273
279, 266, 276, 277
269, 273, 286, 301
309, 287, 277, 294
280, 276, 252, 264
285, 288, 277, 266
264, 256, 256, 268
285, 290, 280, 288
289, 281, 296, 287
289, 275, 258, 271
288, 283, 280, 270
277, 277, 276, 272
270, 302, 299, 285
289, 273, 265, 275
280, 275, 273, 276
280, 289, 290, 278
283, 292, 276, 261
268, 269, 242, 258
273, 259, 274, 272
254, 240, 246, 264
263, 255, 267, 275
277, 274, 258, 259
272, 285, 289, 286
282, 252, 268, 278
265, 270, 272, 274
278, 274, 259, 268
264, 267, 263, 263
274, 268, 257, 257
250, 269, 250, 253
262, 259, 263, 261
236, 242, 259, 263
249, 251, 259, 255
251, 241, 257, 263
250, 248, 251, 249
268, 266, 248, 251
241, 239, 272, 268
266, 247, 259, 255
258, 255, 233, 240
235, 223, 241, 249
244, 234, 251, 253
238, 256, 242, 246
266, 254, 249, 227
245, 235, 223, 227
249, 258, 247, 254
243, 233, 242, 252
237, 229, 216, 227
256, 251, 241, 245
223, 236, 240, 219
231, 226, 225, 242
229, 225, 227, 217
216, 248, 240, 230
235, 219, 226, 241
235, 236, 239, 246
249, 239, 232, 236
234, 235, 236, 231
224, 224, 258, 247
244, 232, 218, 216
230, 215, 235, 236
248, 240, 230, 227
227, 235, 241, 229
224, 223, 243, 225
227, 242, 236, 248
237, 217, 224, 231
230, 233, 232, 220
227, 228, 227, 235
238, 234, 227, 235
244, 247, 241, 235
222, 240, 239, 219
220, 222, 220, 231
242, 233, 230, 234
227, 222, 224, 212
217, 230, 239, 226
205, 209, 208, 212
220, 220, 219, 214
199, 214, 229, 208
215, 216, 211, 221
205, 208, 234, 236
215, 227, 223, 216
220, 200, 209, 214
222, 209, 222, 208
212, 228, 235, 228
211, 209, 216, 220
212, 211, 204, 213
210, 218, 231, 239
225, 226, 231, 224
223, 228, 237, 222
225, 210, 217, 213
203, 227, 243, 242
216, 214, 228, 220
220, 227, 230, 228
227, 215, 221, 230
220, 209, 202, 204
215, 210, 206, 198
191, 207, 205, 194
189, 207, 225, 232
206, 200, 216, 211
210, 216, 210, 212
216, 199, 201, 210
214, 210, 193, 198
206, 199, 198, 217
228, 204, 172, 198
211, 208, 213, 209
215, 223, 216, 216
209, 205, 200, 202
189, 187, 198, 197
206, 211, 224, 215
205, 198, 202, 209
212, 199, 214, 211
198, 191, 200, 209
214, 219, 220, 231
236, 238, 239, 250
242, 252, 249, 242
223, 212, 210, 214
211, 199, 189, 194
188, 189, 195, 192
179, 190, 191, 195
212, 210, 197, 196
196, 213, 216, 214
210, 196, 200, 194
202, 207, 200, 199
215, 207, 182, 201
217, 203, 187, 193
198, 213, 211, 206
206, 205, 198, 198
196, 189, 203, 209
203, 209, 204, 190
196, 192, 178, 191
204, 203, 200, 208
209, 203, 192, 175
175, 189, 191, 187
189, 187, 185, 186
198, 204, 198, 198
207, 205, 189, 180
183, 187, 195, 206
200, 198, 194, 203
183, 161, 169, 180
180, 185, 192, 192
195, 202, 191, 195
187, 194, 191, 185
182, 194, 199, 194
189, 192, 185, 195
192, 180, 175, 173
184, 181, 173, 183
196, 199, 187, 173
183, 206, 200, 194
196, 200, 203, 195
202, 204, 190, 179
186, 192, 193, 196
192, 190, 195, 187
176, 194, 196, 184
190, 196, 215, 202
199, 191, 202, 208
192, 184, 189, 193
197, 186, 192, 186
174, 177, 189, 194
189, 196, 187, 177
172, 175, 188, 200
197, 188, 183, 184
175, 190, 198, 179
177, 176, 183, 187
175, 175, 192, 199
199, 191, 174, 176
179, 182, 196, 181
184, 191, 196, 203
209, 195, 189, 184
197, 199, 202, 195
185, 198, 196, 192
184, 185, 201, 207
208, 200, 194, 199
214, 205, 204, 212
212, 202, 195, 186
187, 191, 216, 225
211, 200, 197, 199
202, 204, 202, 190
200, 204, 185, 180
193, 203, 188, 194
195, 192, 192, 184
181, 183, 183, 180
184, 179, 180, 179
176, 170, 164, 175
172, 175, 201, 202
185, 181, 184, 179
176, 184, 195, 186
173, 172, 170, 177
186, 172, 170, 182
191, 180, 167, 167
180, 185, 173, 173
184, 176, 174, 179
177, 188, 184, 169
164, 165, 164, 166
189, 198, 176, 186
204, 188, 181, 186
190, 186, 190, 194
194, 194, 197, 193
201, 200, 201, 203
197, 205, 194, 177
187, 205, 198, 193
183, 186, 173, 160
177, 169, 171, 192
194, 180, 175, 183
178, 159, 162, 167
166, 159, 163, 174
175, 177, 176, 167
174, 185, 172, 169
174, 173, 184, 188
178, 177, 182, 181
177, 189, 196, 181
187, 193, 179, 166
166, 178, 191, 191
193, 196, 197, 200
195, 183, 190, 195
185, 192, 195, 182
177, 188, 195, 177
181, 198, 196, 201
204, 216, 219, 208
197, 187, 193, 205
196, 186, 191, 195
191, 185, 182, 186
176, 172, 170, 171
176, 191, 185, 174
176, 175, 178, 172
167, 161, 162, 177
189, 179, 182, 199
189, 168, 158, 165
171, 169, 173, 175
169, 179, 180, 178
192, 194, 185, 189
200, 210, 211, 201
204, 205, 196, 195
203, 210, 205, 194
202, 209, 208, 222
214, 206, 212, 216
233, 220, 199, 195
192, 203, 218, 211
205, 215, 212, 212
210, 210, 207, 204
225, 232, 217, 207
209, 209, 213, 224
221, 223, 215, 197
198, 206, 216, 213
208, 220, 236, 224
210, 213, 211, 206
208, 210, 217, 214
200, 199, 200, 200
199, 207, 213, 203
192, 191, 187, 181
198, 216, 195, 186
192, 192, 202, 205
192, 189, 204, 221
216, 208, 220, 232
250, 266, 265, 248
253, 259, 251, 244
245, 245, 237, 242
249, 232, 217, 221
227, 225, 222, 228
241, 257, 262, 256
261, 273, 274, 292
317, 323, 315, 324
356, 358, 330, 338
361, 359, 348, 364
379, 360, 375, 397
391, 401, 404, 393
406, 425, 446, 467
486, 521, 547, 559
581, 627, 675, 709
746, 796, 838, 888
969, 1036, 1110, 1258
1461, 1770, 2142, 2624
3437, 4557, 6195, 8524
11594, 15232, 18943, 22298
24539, 25156, 23990, 21511
18397, 15135, 12052, 9029
6421, 4477, 3170, 2367
1853, 1543, 1323, 1155
1015, 902, 844, 785
683, 614, 565, 556
569, 532, 476, 439
414, 413, 408, 385
376, 377, 373, 370
370, 370, 376, 377
349, 345, 360, 361
351, 324, 319, 319
304, 295, 297, 302
322, 316, 296, 277
279, 291, 289, 296
276, 276, 292, 284
278, 286, 303, 309
304, 285, 277, 295
328, 331, 326, 331
337, 327, 339, 354
361, 348, 345, 341
320, 330, 332, 319
333, 344, 358, 368
360, 346, 349, 363
351, 349, 371, 379
403, 404, 402, 424
436, 427, 439, 452
458, 499, 527, 523
535, 571, 588, 611
651, 719, 789, 849
909, 1054, 1269, 1551
1932, 2430, 3230, 4428
6050, 8194, 10834, 13516
15879, 17479, 17805, 16966
15270, 13006, 10878, 8857
6798, 4993, 3551, 2547
1947, 1534, 1244, 1035
902, 811, 753, 718
669, 618, 583, 547
537, 513, 503, 507
495, 478, 487, 525
530, 517, 523, 533
531, 532, 543, 516
495, 528, 502, 492
521, 509, 513, 560
572, 576, 605, 618
642, 680, 733, 780
800, 806, 828, 843
826, 800, 799, 823
854, 877, 878, 883
911, 970, 1008, 1052
1150, 1206, 1271, 1377
1491, 1626, 1779, 1967
2309, 2718, 3355, 4235
5402, 7137, 9533, 12774
17277, 22937, 28924, 34332
38369, 40219, 39693, 36836
32424, 27952, 23625, 19043
14536, 10672, 7754, 5652
4249, 3387, 2724, 2246
1956, 1723, 1526, 1358
1211, 1128, 1034, 946
877, 805, 733, 686
684, 664, 612, 572
571, 583, 581, 545
500, 474, 466, 478
473, 464, 464, 445
449, 465, 475, 483
451, 435, 431, 415
406, 397, 389, 367
379, 376, 357, 361
348, 345, 354, 343
354, 342, 320, 342
358, 335, 327, 323
330, 340, 325, 317
311, 307, 323, 326
324, 317, 312, 304
319, 319, 295, 286
307, 319, 310, 317
321, 317, 302, 298
295, 278, 275, 283
304, 300, 298, 314
300, 300, 299, 278
286, 320, 312, 305
313, 326, 341, 364
366, 367, 402, 444
482, 514, 530, 517
498, 497, 486, 459
435, 407, 374, 354
347, 344, 337, 325
326, 316, 304, 309
312, 318, 311, 287
261, 266, 269, 252
244, 243, 248, 245
254, 256, 254, 252
244, 241, 251, 244
234, 227, 215, 224
243, 239, 230, 227
235, 241, 234, 235
243, 248, 241, 231
218, 221, 242, 242
231, 235, 233, 226
219, 235, 230, 236
245, 226, 217, 234
238, 212, 212, 222
225, 215, 212, 226
226, 233, 232, 223
227, 228, 213, 208
230, 227, 218, 226
227, 227, 221, 217
212, 212, 213, 218
218, 217, 218, 213
210, 210, 202, 202
206, 205, 208, 195
200, 212, 215, 218
216, 222, 227, 222
215, 213, 215, 222
214, 204, 217, 217
219, 205, 195, 202
207, 200, 208, 211
210, 203, 189, 198
188, 192, 203, 204
196, 190, 193, 180
191, 210, 194, 183
192, 194, 193, 194
197, 203, 180, 171
180, 200, 197, 179
177, 186, 184, 174
183, 172, 173, 188
194, 181, 175, 174
176, 182, 181, 179
190, 201, 192, 186
177, 176, 174, 178
186, 174, 171, 182
177, 172, 174, 183
188, 184, 183, 200
193, 194, 194, 173
169, 178, 184, 191
178, 183, 198, 207
189, 177, 177, 190
188, 182, 176, 170
186, 199, 209, 228
249, 237, 219, 228
237, 243, 267, 261
256, 226, 209, 207
194, 191, 190, 181
173, 166, 185, 176
161, 173, 178, 178
178, 166, 157, 165
179, 183, 164, 176
192, 185, 164, 159
170, 171, 168, 177
174, 166, 168, 176
178, 170, 172, 157
159, 160, 168, 173
172, 172, 167, 178
176, 162, 167, 162
159, 160, 157, 169
175, 166, 167, 168
155, 159, 174, 179
180, 177, 163, 170
166, 164, 167, 171
168, 162, 169, 176
167, 171, 184, 187
183, 169, 178, 180
178, 180, 174, 188
201, 198, 202, 203
184, 181, 183, 190
190, 194, 186, 168
182, 188, 169, 174
187, 183, 172, 182
171, 157, 161, 160
156, 154, 159, 159
169, 159, 142, 155
167, 173, 161, 180
179, 161, 163, 172
178, 176, 172, 172
174, 181, 185, 179
178, 173, 171, 179
191, 187, 180, 191
198, 206, 197, 187
186, 194, 201, 205
205, 177, 167, 175
188, 188, 183, 206
223, 218, 209, 201
196, 190, 185, 195
189, 189, 201, 209
218, 205, 206, 210
211, 232, 234, 228
228, 224, 237, 248
250, 254, 263, 301
317, 337, 334, 340
352, 375, 399, 433
456, 497, 547, 621
717, 790, 908, 1093
1307, 1640, 2134, 2769
3613, 4604, 5692, 6617
7423, 7882, 7858, 7357
6715, 6135, 5645, 5188
4645, 3932, 3141, 2419
1926, 1501, 1164, 974
817, 703, 604, 538
485, 431, 390, 360
338, 335, 317, 303
276, 255, 258, 254
242, 241, 238, 239
238, 238, 233, 228
232, 226, 209, 200
195, 195, 192, 185
196, 208, 207, 209
203, 193, 197, 213
213, 216, 207, 218
217, 208, 221, 235
229, 227, 232, 232
242, 230, 212, 214
208, 201, 185, 189
195, 180, 177, 185
180, 175, 183, 188
189, 176, 178, 175
163, 180, 194, 186
176, 172, 176, 179
168, 157, 146, 152
171, 169, 165, 167
165, 165, 167, 161
160, 168, 173, 159
157, 158, 158, 161
161, 155, 159, 173
172, 173, 167, 158
172, 180, 169, 157
163, 168, 169, 158
157, 157, 161, 175
162, 153, 156, 166
169, 157, 154, 161
168, 164, 158, 160
175, 181, 171, 175
163, 154, 160, 168
173, 168, 155, 169
174, 171, 171, 173
165, 151, 162, 171
175, 179, 173, 172
168, 158, 165, 176
166, 154, 145, 153
163, 160, 165, 175
166, 148, 154, 167
171, 160, 152, 156
157, 160, 145, 153
158, 158, 164, 158
164, 163, 155, 152
151, 158, 170, 164
155, 160, 164, 159
159, 161, 161, 152
147, 161, 155, 150
155, 159, 155, 153
163, 169, 169, 164
162, 152, 151, 158
158, 159, 153, 151
156, 158, 150, 140
148, 161, 155, 156
169, 173, 159, 150
154, 166, 156, 146
146, 139, 146, 139
152, 171, 160, 159
165, 164, 158, 154
159, 166, 165, 166
167, 172, 169, 166
166, 170, 181, 184
173, 160, 166, 177
177, 177, 173, 164
156, 163, 166, 166
170, 166, 163, 169
179, 177, 170, 179
185, 187, 191, 199
203, 195, 188, 182
161, 156, 171, 171
173, 170, 159, 167
175, 172, 161, 158
165, 159, 157, 159
161, 156, 158, 170
164, 158, 165, 161
150, 149, 153, 161
154, 153, 163, 164
151, 155, 157, 150
150, 153, 160, 167
171, 185, 183, 165
170, 189, 198, 185
177, 184, 196, 200
207, 194, 189, 207
207, 199, 188, 187
193, 204, 219, 212
203, 201, 197, 188
176, 200, 217, 211
214, 222, 224, 204
188, 200, 208, 205
203, 214, 220, 208
208, 219, 216, 219
220, 219, 231, 217
203, 218, 224, 225
240, 228, 226, 237
224, 225, 236, 238
245, 260, 240, 239
265, 248, 247, 250
267, 287, 266, 261
277, 298, 326, 326
330, 370, 405, 405
399, 433, 457, 467
491, 532, 586, 635
701, 796, 841, 913
1068, 1219, 1396, 1633
2003, 2460, 3092, 4023
5087, 6372, 7768, 9158
10265, 10909, 10921, 10314
9409, 8611, 8030, 7543
7178, 6674, 5991, 5168
4195, 3344, 2618, 2007
1606, 1325, 1122, 960
833, 729, 646, 583
542, 493, 452, 429
411, 382, 371, 356
332, 331, 331, 311
288, 277, 284, 276
265, 272, 261, 241
241, 242, 236, 237
251, 255, 244, 238
244, 237, 226, 222
220, 210, 205, 212
213, 233, 247, 230
221, 223, 215, 226
230, 216, 199, 191
201, 197, 190, 191
194, 204, 208, 210
223, 223, 212, 204
206, 202, 204, 203
212, 222, 227, 220
197, 210, 205, 201
205, 207, 198, 193
192, 210, 203, 189
181, 180, 193, 196
189, 189, 197, 202
198, 191, 181, 198
204, 184, 182, 190
187, 179, 174, 183
180, 182, 178, 194
195, 205, 197, 185
175, 178, 176, 177
190, 185, 184, 188
181, 193, 187, 172
184, 199, 197, 164
152, 165, 190, 216
205, 191, 191, 177
173, 172, 186, 200
193, 188, 179, 173
165, 175, 188, 169
177, 186, 172, 163
165, 180, 188, 184
190, 185, 187, 181
185, 190, 201, 212
198, 188, 192, 181
185, 195, 197, 189
190, 205, 211, 218
208, 202, 191, 191
211, 202, 220, 225
209, 210, 206, 201
196, 215, 202, 202
205, 220, 205, 209
212, 218, 212, 212
202, 203, 196, 204
208, 221, 223, 216
208, 220, 221, 218
216, 214, 224, 230
231, 225, 207, 210
230, 220, 227, 225
248, 249, 254, 261
271, 273, 246, 247
242, 242, 241, 266
247, 236, 237, 255
269, 243, 234, 251
252, 232, 215, 228
252, 251, 247, 243
234, 250, 254, 266
263, 257, 262, 267
295, 311, 319, 310
310, 343, 350, 366
386, 404, 423, 448
492, 525, 550, 625
648, 698, 772, 868
965, 1076, 1188, 1385
1640, 2020, 2391, 2922
3663, 4406, 5305, 6527
7741, 8465, 8879, 8830
8345, 7613, 6888, 6397
6065, 5905, 5754, 5509
4971, 4355, 3613, 3015
2454, 1945, 1569, 1260
1100, 975, 838, 717
652, 606, 554, 523
495, 458, 431, 411
388, 356, 333, 325
325, 324, 310, 293
275, 265, 271, 282
282, 271, 270, 251
242, 247, 237, 259
264, 248, 239, 240
259, 247, 230, 227
216, 206, 210, 236
231, 232, 224, 222
224, 212, 213, 232
236, 235, 226, 232
216, 226, 249, 233
206, 208, 205, 207
211, 222, 197, 202
208, 207, 209, 203
200, 223, 217, 212
210, 215, 229, 197
198, 197, 184, 199
202, 208, 211, 186
189, 207, 205, 205
205, 207, 217, 212
188, 213, 211, 211
220, 230, 216, 215
231, 220, 210, 202
204, 212, 225, 231
235, 222, 219, 230
234, 230, 230, 224
228, 236, 257, 265
250, 265, 260, 248
265, 253, 255, 262
279, 307, 281, 291
290, 280, 292, 324
310, 325, 346, 357
357, 377, 384, 419
498, 559, 641, 689
808, 1000, 1192, 1359
1472, 1489, 1551, 1512
1437, 1274, 1192, 1172
1137, 1088, 1078, 1045
987, 893, 773, 657
579, 522, 439, 422
387, 365, 345, 326
293, 289, 318, 325
307, 300, 276, 264
245, 264, 255, 279
287, 292, 287, 271
268, 276, 277, 291
281, 296, 289, 306
309, 334, 347, 347
380, 388, 417, 414
438, 457, 490, 519
556, 604, 625, 684
726, 774, 883, 965
1094, 1247, 1499, 1753
2093, 2517, 3060, 3700
4608, 5395, 6130, 6689
7088, 7006, 6629, 6246
5680, 5195, 4851, 4712
4673, 4486, 4359, 3944
3500, 3092, 2593, 2107
1747, 1491, 1238, 1108
961, 807, 744, 653
600, 580, 548, 483
466, 479, 453, 437
443, 447, 438, 428
441, 472, 465, 453
475, 511, 571, 606
657, 717, 753, 873
1001, 1196, 1448, 1723
2099, 2438, 2836, 3267
3443, 3547, 3481, 3314
3125, 2847, 2576, 2506
2498, 2453, 2318, 2265
2054, 1837, 1660, 1409
1166, 1008, 842, 729
604, 549, 511, 451
410, 376, 365, 337
319, 299, 297, 273
272, 282, 248, 252
257, 241, 241, 234
249, 246, 228, 216
233, 208, 192, 217
215, 208, 208, 213
199, 209, 203, 199
195, 208, 206, 213
190, 204, 190, 197
194, 180, 207, 194
192, 201, 196, 201
180, 178, 190, 219
197, 208, 220, 221
201, 185, 197, 183
189, 195, 195, 171
180, 172, 183, 188
178, 191, 187, 196
180, 165, 175, 179
163, 171, 159, 192
182, 177, 177, 181
180, 188, 184, 188
187, 158, 158, 166
181, 164, 151, 166
164, 175, 173, 181
184, 172, 163, 143
162, 171, 199, 194
187, 159, 169, 175
158, 160, 162, 164
175, 182, 162, 170
185, 193, 168, 183
172, 157, 170, 205
196, 198, 181, 200
202, 212, 182, 206
227, 236, 228, 274
264, 265, 278, 310
344, 393, 451, 475
550, 643, 690, 693
672, 672, 642, 565
537, 506, 490, 493
450, 476, 467, 439
378, 358, 341, 291
271, 270, 222, 216
229, 192, 197, 201
196, 174, 169, 193
177, 180, 186, 174
195, 181, 170, 171
165, 160, 151, 159
156, 154, 170, 160
148, 152, 166, 164
173, 180, 167, 160
149, 163, 157, 158
176, 166, 151, 164
172, 178, 159, 165
142, 155, 150, 169
171, 157, 146, 155
175, 162, 148, 165
165, 171, 153, 145
163, 160, 164, 151
154, 162, 159, 154
162, 171, 167, 165
161, 161, 175, 168
153, 162, 166, 156
151, 173, 174, 157
148, 152, 162, 138
155, 152, 158, 168
160, 184, 178, 177
153, 147, 171, 175
177, 185, 186, 164
166, 160, 164, 177
172, 161, 166, 172
159, 180, 163, 174
183, 196, 172, 167
181, 173, 155, 155
158, 163, 144, 146
149, 166, 155, 162
155, 144, 152, 145
136, 153, 155, 153
155, 142, 147, 145
150, 155, 146, 149
152, 163, 155, 141
143, 158, 157, 153
159, 165, 154, 147
154, 158, 145, 141
166, 162, 178, 175
186, 163, 174, 176
182, 181, 180, 194
208, 194, 209, 205
239, 231, 235, 244
281, 297, 304, 337
353, 401, 468, 509
594, 680, 758, 922
966, 1086, 1170, 1079
1150, 1025, 924, 899
796, 753, 772, 756
757, 711, 697, 709
658, 557, 495, 461
418, 333, 307, 283
243, 233, 216, 196
187, 193, 201, 206
166, 169, 157, 167
174, 152, 167, 162
167, 147, 165, 158
164, 158, 145, 136
156, 156, 156, 136
124, 150, 129, 140
145, 148, 133, 162
156, 151, 144, 145
156, 151, 139, 147
149, 138, 131, 132
150, 150, 128, 139
152, 142, 150, 126
124, 139, 131, 142
142, 151, 152, 144
141, 130, 132, 149
141, 146, 146, 120
160, 133, 114, 132
126, 145, 145, 152
171, 153, 140, 146
142, 148, 147, 142
147, 152, 148, 152
150, 146, 138, 136
128, 147, 139, 125
129, 143, 137, 151
125, 148, 150, 134
140, 146, 142, 143
145, 134, 150, 138
138, 139, 147, 128
137, 131, 144, 127
134, 149, 143, 131
152, 132, 132, 151
135, 140, 135, 156
133, 137, 139, 145
132, 145, 135, 138
145, 144, 122, 148
127, 133, 140, 130
134, 145, 138, 150
156, 147, 150, 137
142, 149, 155, 138
154, 146, 140, 137
152, 150, 153, 161
151, 158, 158, 157
165, 170, 169, 148
180, 168, 178, 181
195, 206, 184, 238
237, 237, 247, 258
321, 329, 391, 439
460, 501, 567, 586
630, 656, 592, 564
537, 469, 429, 407
432, 420, 435, 425
439, 433, 383, 355
351, 305, 298, 263
228, 197, 214, 197
206, 181, 183, 178
157, 154, 154, 144
136, 145, 144, 154
154, 154, 155, 147
137, 138, 132, 150
146, 151, 142, 148
133, 143, 150, 145
134, 146, 131, 136
132, 143, 147, 157
140, 137, 123, 140
142, 153, 125, 116
135, 126, 135, 137
138, 131, 149, 133
134, 144, 135, 126
142, 136, 145, 140
133, 145, 141, 128
140, 137, 147, 128
136, 146, 141, 152
160, 143, 141, 119
128, 125, 131, 132
132, 139, 141, 148
135, 133, 152, 158
143, 144, 159, 132
119, 147, 143, 143
129, 141, 153, 144
134, 151, 135, 158
145, 146, 136, 134
128, 130, 141, 138
141, 138, 141, 138
134, 119, 145, 145
123, 135, 135, 124
126, 135, 127, 121
130, 132, 132, 128
119, 138, 133, 130
144, 141, 154, 122
124, 132, 140, 121
144, 140, 108, 121
139, 128, 130, 119
144, 130, 133, 134
105, 127, 123, 138
116, 123, 141, 122
133, 141, 117, 132
146, 131, 110, 127
134, 126, 129, 124
140, 139, 136, 130
128, 130, 138, 130
140, 139, 137, 127
120, 112, 119, 134
134, 164, 135, 124
125, 144, 126, 126
142, 138, 133, 158
149, 154, 127, 134
157, 141, 148, 155
130, 142, 147, 119
123, 139, 132, 118
125, 131, 139, 134
122, 138, 122, 110
131, 157, 126, 146
143, 134, 140, 140
138, 138, 141, 122
156, 135, 140, 146
142, 134, 142, 129
142, 152, 137, 150
140, 129, 148, 151
138, 129, 132, 138
118, 124, 147, 130
144, 144, 136, 145
152, 127, 141, 138
150, 162, 138, 149
142, 136, 153, 144
137, 140, 149, 139
132, 130, 138, 133
142, 146, 157, 131
146, 134, 142, 115
130, 143, 130, 138
154, 136, 131, 124
135, 145, 147, 144
138, 141, 170, 132
136, 145, 123, 125
140, 142, 125, 143
152, 153, 136, 138
124, 151, 131, 148
146, 142, 147, 142
147, 168, 152, 160
167, 140, 181, 144
170, 169, 159, 163
164, 174, 146, 178
169, 174, 175, 191
179, 200, 176, 214
198, 223, 228, 238
227, 239, 234, 249
261, 300, 287, 304
304, 313, 397, 383
406, 464, 515, 587
608, 731, 814, 947
1090, 1218, 1365, 1537
1685, 1858, 1922, 2015
2012, 1899, 1803, 1625
1510, 1436, 1345, 1197
1214, 1224, 1260, 1305
1280, 1237, 1219, 1219
1219, 1219, 1219
*END

*EOF