File: xrd/raw/ZnOCuCl2.asc
*TYPE		=  Raw
*CLASS		=  ASCII CLASS
*SAMPLE		=  ZnOCuCl2
*COMMENT	=
*FNAME		=  ZnOCuCl2_Theta_2-Theta.asc
*DATE		=  03-Mar-17 15:18

*GROUP_COUNT	=  1
*GONIO		=  MiniFlex 300/600 +, 150
*ATTACHMENT	=  ASC-6
*ASC		=  0, 0, 0.000000, 0.000000
*FILTER		=  K-beta(x2)
*C_MONOCHRO	=  None, 0.000000
*SLIT_NAME	=  0, IHS
*SLIT_NAME	=  1, DS +
*SLIT_NAME	=  2, SS
*SLIT_NAME	=  3, RS
*COUNTER	=  D/teX Ultra, 0
*POS_FORMAT	=  0
*SCAN_AXIS	=  2theta/theta
*MEAS_MODE	=  Continuous Scanning
*TARGET		=  29
*XRAY_CHAR	=  K-ALPHA
*WAVE_LENGTH1	=  1.54059
*WAVE_LENGTH2	=  1.54441
*THICKNESS	=  0, 0.000000
*MU		=  0, 0.000000
*SCAN_MODE	=  2theta/theta
*SPEED_DIM	=  sec./step
*XUNIT		=  deg.
*YUNIT		=  counts
*SCALE_MODE	=  1
*REP_COUNT	=  0
*SE_COUNT	=  0
*STD_MATERIAL	=  Unknown, Unknown, 0.000000, 0.000000, 0.000000, 0.000000, 0.000000, 0.000000
*LATT_CONS	=  0, Unknown, Unknown, 0.000000, 0.000000, 0.000000, 0.000000, 0.000000, 0.000000
*SEC_COUNT	=  1
*TSPEC_SIZE	=  0
*EXTRA_SIZE	=  0
*MEMO		=

*BEGIN
*GROUP		=  0
*START		=  5
*STOP		=  90
*STEP		=  0.02
*OFFSET		=  0.000000
*SPEED		=  0.24
*SLIT_SPEC	=  0, 10.0mm, 10, 0.000000
*SLIT_SPEC	=  1, 0.625deg, 0.625, 0.000000
*SLIT_SPEC	=  2, 13.0mm, 13, 0.000000
*SLIT_SPEC	=  3, 13.0mm, 13, 0.000000
*KV		=  40
*MA		=  15
*LOW		=  0.000000
*HIGH		=  0.000000
*CTEMPER	=  0, 0.000000
*CTEMPER	=  1, 0.000000
*CTEMPER	=  2, 0.000000
*PAREX		=  0, 0.000000
*PAREX		=  1, 0.000000
*PAREX		=  2, 0.000000
*PAREX		=  3, 0.000000
*PAREX		=  4, 0.000000
*PAREX		=  5, 0.000000
*PAREX		=  6, 0.000000
*PAREX		=  7, 0.000000
*PAREX		=  8, 0.000000
*PAREX		=  9, 0.000000
*PAREX		=  10, 0.000000
*PAREX		=  11, 0.000000
*PAREX		=  12, 0.000000
*PAREX		=  13, 0.000000
*PAREX		=  14, 0.000000
*PAREX		=  15, 0.000000
*FULL_SCALE	=  41535
*INDEX		=  0, 0, 0
*COUNT		=  4251
633, 597, 615, 638
621, 604, 600, 630
626, 600, 627, 637
641, 630, 605, 590
602, 629, 636, 644
641, 636, 649, 609
612, 625, 626, 619
631, 582, 552, 593
611, 599, 612, 603
586, 589, 569, 583
581, 592, 584, 606
584, 552, 569, 599
594, 592, 610, 603
594, 607, 585, 560
551, 578, 591, 568
545, 558, 576, 546
538, 554, 572, 573
561, 546, 566, 580
573, 570, 587, 565
583, 594, 578, 546
560, 569, 586, 588
535, 544, 550, 567
593, 591, 545, 533
535, 568, 571, 563
580, 573, 552, 554
554, 543, 539, 536
540, 583, 550, 523
549, 578, 573, 559
548, 553, 540, 531
563, 564, 548, 544
525, 519, 520, 553
553, 553, 571, 598
578, 551, 574, 575
534, 535, 535, 539
555, 533, 526, 543
547, 548, 535, 549
544, 544, 587, 568
532, 535, 534, 528
550, 528, 543, 559
520, 528, 541, 549
565, 570, 545, 543
529, 540, 548, 538
531, 528, 551, 554
528, 573, 571, 557
573, 561, 536, 519
549, 551, 536, 549
541, 540, 552, 539
552, 558, 586, 603
563, 579, 565, 529
540, 540, 576, 561
568, 585, 565, 547
541, 559, 567, 564
558, 561, 556, 541
533, 557, 572, 556
539, 552, 587, 547
533, 562, 562, 570
571, 532, 540, 565
572, 556, 564, 573
584, 568, 558, 562
567, 561, 561, 558
564, 586, 572, 576
589, 557, 546, 577
570, 570, 570, 582
577, 571, 567, 555
555, 557, 563, 567
551, 568, 547, 583
574, 563, 570, 586
590, 585, 590, 562
583, 596, 564, 570
573, 613, 622, 581
596, 621, 602, 569
562, 593, 606, 582
585, 597, 596, 614
603, 586, 556, 580
610, 597, 597, 615
602, 590, 581, 599
623, 609, 589, 606
596, 616, 643, 623
605, 644, 654, 633
626, 599, 602, 606
592, 608, 620, 617
607, 597, 606, 612
604, 600, 613, 602
604, 607, 614, 616
640, 626, 621, 609
635, 625, 644, 613
646, 625, 608, 641
621, 630, 615, 608
608, 592, 605, 613
638, 658, 652, 631
628, 650, 647, 652
675, 634, 621, 608
630, 634, 647, 647
651, 647, 634, 640
614, 627, 645, 658
654, 634, 629, 633
647, 679, 672, 628
653, 674, 658, 657
666, 655, 673, 636
629, 635, 636, 644
667, 655, 664, 658
642, 625, 651, 643
632, 660, 632, 643
630, 631, 638, 632
631, 639, 660, 670
645, 647, 644, 640
645, 657, 652, 658
665, 647, 633, 620
614, 642, 634, 640
635, 641, 672, 660
674, 642, 676, 697
639, 639, 632, 634
649, 631, 620, 642
661, 683, 675, 676
679, 707, 699, 658
649, 661, 688, 680
665, 669, 679, 656
670, 661, 635, 633
664, 657, 680, 677
675, 690, 677, 690
704, 681, 698, 689
680, 697, 728, 713
701, 692, 696, 717
717, 681, 674, 693
726, 726, 719, 713
719, 776, 767, 756
809, 867, 901, 975
1083, 1219, 1408, 1605
1755, 1765, 1741, 1697
1597, 1425, 1242, 1121
995, 902, 862, 824
787, 764, 758, 727
701, 697, 734, 719
696, 718, 725, 719
727, 739, 691, 673
680, 664, 671, 713
695, 689, 709, 711
679, 695, 698, 739
746, 721, 686, 698
710, 701, 689, 693
720, 723, 685, 669
686, 698, 696, 707
719, 712, 699, 696
706, 679, 693, 682
664, 666, 683, 691
699, 730, 692, 708
720, 728, 714, 676
682, 681, 705, 688
689, 708, 699, 703
728, 732, 718, 709
697, 672, 697, 725
713, 737, 746, 725
717, 701, 717, 705
707, 725, 709, 688
690, 739, 717, 698
703, 712, 723, 729
728, 733, 728, 721
695, 716, 723, 706
707, 731, 720, 719
677, 683, 716, 742
727, 715, 691, 681
704, 720, 713, 700
707, 722, 759, 768
715, 704, 730, 706
699, 687, 699, 739
750, 747, 734, 708
743, 773, 738, 757
796, 782, 767, 779
775, 781, 818, 840
857, 879, 857, 850
841, 863, 889, 874
887, 952, 1012, 1066
1189, 1350, 1620, 1981
2454, 3093, 3924, 4848
5545, 5794, 5535, 5027
4235, 3327, 2574, 1998
1608, 1346, 1164, 1052
993, 950, 940, 909
912, 877, 877, 844
842, 824, 805, 818
818, 776, 762, 742
739, 755, 775, 784
778, 750, 764, 778
800, 788, 759, 779
767, 756, 757, 787
763, 756, 783, 753
729, 733, 728, 739
759, 742, 762, 772
755, 771, 769, 782
799, 792, 756, 752
757, 794, 790, 781
775, 765, 763, 740
744, 759, 771, 745
741, 756, 754, 743
763, 756, 757, 786
782, 777, 775, 767
771, 774, 742, 777
785, 770, 777, 776
784, 781, 740, 761
788, 747, 753, 779
792, 780, 737, 730
771, 768, 785, 781
763, 763, 749, 779
772, 756, 785, 774
786, 770, 741, 779
774, 765, 769, 783
780, 802, 791, 750
769, 777, 768, 774
792, 773, 777, 783
780, 771, 779, 798
793, 766, 787, 792
788, 788, 791, 809
798, 775, 780, 776
760, 757, 765, 781
774, 754, 769, 779
777, 772, 778, 746
761, 797, 816, 826
821, 793, 797, 809
796, 777, 810, 835
831, 845, 837, 817
819, 808, 837, 870
881, 875, 869, 872
914, 946, 968, 984
999, 1021, 1065, 1088
1108, 1125, 1214, 1309
1392, 1471, 1544, 1584
1596, 1620, 1646, 1692
1717, 1742, 1779, 1777
1750, 1729, 1723, 1705
1663, 1634, 1684, 1768
1827, 1911, 2087, 2360
2564, 2787, 3006, 3190
3298, 3222, 3079, 2923
2684, 2500, 2365, 2160
2091, 2016, 1984, 2016
2076, 2166, 2345, 2549
2768, 3057, 3256, 3241
3195, 2963, 2628, 2310
2013, 1712, 1483, 1336
1212, 1121, 1094, 1066
1060, 1021, 1001, 1007
1007, 983, 972, 980
962, 923, 898, 886
905, 929, 929, 945
928, 903, 895, 922
938, 941, 905, 885
890, 891, 918, 932
956, 938, 915, 912
956, 967, 942, 958
980, 973, 978, 960
952, 967, 976, 978
986, 1001, 1027, 1047
1048, 1061, 1100, 1130
1175, 1175, 1186, 1241
1336, 1376, 1361, 1369
1438, 1552, 1655, 1764
1822, 1913, 2007, 2041
2152, 2262, 2361, 2441
2446, 2480, 2518, 2547
2446, 2294, 2161, 2039
1861, 1704, 1589, 1437
1298, 1221, 1167, 1091
1036, 1013, 1015, 993
926, 897, 941, 943
915, 900, 921, 957
945, 920, 891, 876
875, 871, 889, 863
876, 885, 877, 879
878, 854, 875, 901
901, 908, 903, 877
881, 907, 924, 908
903, 926, 933, 937
916, 905, 932, 971
949, 925, 926, 915
905, 897, 885, 876
876, 882, 874, 858
865, 865, 869, 886
852, 847, 859, 844
861, 865, 855, 871
856, 822, 836, 868
860, 846, 872, 877
855, 876, 891, 858
861, 867, 829, 841
853, 855, 866, 866
879, 875, 872, 875
889, 902, 877, 861
872, 864, 867, 882
856, 890, 918, 897
914, 923, 918, 911
893, 913, 922, 898
909, 941, 972, 969
952, 953, 969, 965
986, 995, 982, 1013
1030, 1020, 1039, 1046
1041, 1074, 1158, 1196
1212, 1319, 1402, 1446
1533, 1625, 1726, 1838
1938, 2069, 2241, 2365
2424, 2504, 2624, 2739
2830, 2916, 3008, 3047
3062, 3060, 3009, 2975
2957, 2899, 2836, 2769
2729, 2674, 2560, 2433
2339, 2305, 2250, 2149
2105, 2127, 2082, 1961
1906, 1887, 1808, 1727
1690, 1661, 1627, 1654
1628, 1511, 1470, 1504
1492, 1474, 1469, 1444
1444, 1461, 1481, 1435
1435, 1452, 1465, 1502
1525, 1613, 1739, 1780
1898, 2225, 2584, 2937
3388, 3883, 4366, 4791
5029, 5110, 4989, 4761
4516, 4138, 3805, 3531
3150, 2840, 2590, 2385
2200, 2049, 1975, 1865
1745, 1679, 1659, 1581
1497, 1478, 1465, 1452
1489, 1506, 1477, 1495
1521, 1564, 1686, 1779
1810, 1899, 2025, 2145
2289, 2453, 2598, 2718
2751, 2766, 2751, 2725
2703, 2619, 2611, 2618
2610, 2595, 2623, 2611
2595, 2731, 2848, 2937
3061, 3185, 3342, 3523
3680, 3823, 3962, 4046
4008, 3954, 3839, 3634
3450, 3231, 2994, 2822
2730, 2652, 2621, 2605
2557, 2633, 2775, 2823
2835, 2866, 2927, 3014
2996, 2909, 2844, 2788
2702, 2518, 2325, 2160
1980, 1846, 1742, 1604
1489, 1378, 1278, 1210
1141, 1089, 1106, 1114
1099, 1097, 1102, 1127
1154, 1181, 1217, 1228
1299, 1468, 1608, 1690
1699, 1623, 1546, 1469
1402, 1317, 1175, 1094
1071, 1011, 961, 951
991, 977, 961, 986
955, 912, 918, 926
931, 941, 921, 898
915, 933, 929, 898
901, 913, 900, 900
890, 883, 902, 903
906, 943, 947, 928
933, 944, 930, 927
940, 915, 881, 883
919, 939, 921, 884
890, 873, 863, 897
897, 918, 917, 886
907, 947, 955, 932
948, 940, 914, 927
916, 906, 921, 961
951, 922, 904, 900
926, 944, 930, 904
903, 908, 936, 960
958, 951, 939, 947
951, 943, 972, 971
964, 946, 915, 938
997, 1046, 1020, 992
1008, 1034, 1050, 1058
1066, 1104, 1093, 1084
1086, 1084, 1075, 1099
1145, 1129, 1140, 1166
1161, 1176, 1199, 1183
1203, 1238, 1174, 1172
1209, 1220, 1227, 1231
1256, 1272, 1305, 1351
1370, 1369, 1437, 1457
1496, 1575, 1636, 1747
1835, 1995, 2385, 2789
3205, 3745, 4295, 4818
5617, 6746, 7830, 8307
7961, 7098, 6453, 5984
5368, 4687, 4004, 3337
2929, 2779, 2708, 2636
2631, 2665, 2642, 2583
2559, 2570, 2525, 2401
2339, 2243, 2120, 2061
2004, 1909, 1810, 1742
1680, 1642, 1650, 1643
1611, 1620, 1724, 1765
1860, 1997, 2139, 2360
2574, 2725, 2738, 2684
2670, 2618, 2540, 2429
2281, 2271, 2315, 2375
2492, 2678, 2852, 3012
3245, 3392, 3393, 3383
3238, 3021, 2791, 2493
2272, 2048, 1800, 1605
1496, 1391, 1277, 1168
1129, 1121, 1138, 1116
1049, 1035, 1062, 1050
1033, 1019, 1027, 1018
1014, 1029, 1030, 991
975, 972, 986, 1006
996, 1013, 997, 986
1021, 1018, 1001, 1016
1004, 1008, 1002, 1019
1034, 1019, 1007, 992
1016, 1031, 1022, 1001
1025, 1065, 1077, 1094
1074, 1059, 1061, 1038
1056, 1102, 1132, 1138
1114, 1126, 1145, 1171
1189, 1160, 1203, 1272
1297, 1334, 1336, 1359
1360, 1385, 1436, 1448
1455, 1486, 1578, 1660
1757, 1899, 2070, 2311
2631, 3008, 3384, 3796
4266, 4680, 5108, 5417
5721, 6074, 6146, 5987
5542, 5024, 4667, 4274
3838, 3467, 3112, 2764
2532, 2334, 2234, 2057
1895, 1824, 1754, 1636
1508, 1460, 1413, 1306
1270, 1269, 1236, 1202
1141, 1102, 1119, 1093
1072, 1091, 1071, 1059
1068, 1053, 1022, 996
976, 961, 979, 992
994, 1001, 1012, 999
1015, 1042, 1080, 1098
1090, 1101, 1120, 1130
1143, 1136, 1110, 1105
1119, 1143, 1170, 1193
1164, 1156, 1178, 1246
1280, 1274, 1301, 1319
1287, 1277, 1289, 1272
1293, 1285, 1244, 1230
1237, 1262, 1265, 1203
1149, 1126, 1131, 1126
1087, 1095, 1089, 1062
1048, 1067, 1071, 1053
1039, 1023, 1033, 1075
1061, 1007, 987, 1007
1004, 1012, 1064, 1075
1073, 1047, 1075, 1096
1128, 1160, 1200, 1295
1359, 1506, 1684, 1786
1903, 1962, 1958, 1963
1969, 1872, 1754, 1675
1603, 1562, 1447, 1300
1226, 1186, 1155, 1127
1092, 1046, 1018, 1022
1000, 1036, 1021, 994
1013, 980, 960, 949
967, 976, 950, 930
912, 956, 980, 958
958, 954, 955, 983
969, 976, 1011, 1020
1009, 1006, 986, 996
1004, 989, 1046, 1102
1031, 1043, 1052, 1087
1107, 1098, 1088, 1133
1175, 1157, 1186, 1155
1175, 1191, 1239, 1263
1215, 1227, 1242, 1240
1254, 1314, 1345, 1361
1346, 1403, 1428, 1461
1463, 1457, 1468, 1458
1431, 1460, 1479, 1484
1464, 1412, 1368, 1347
1295, 1293, 1314, 1268
1224, 1187, 1211, 1191
1195, 1186, 1213, 1193
1192, 1228, 1209, 1208
1216, 1196, 1241, 1271
1215, 1229, 1246, 1249
1225, 1203, 1193, 1183
1193, 1175, 1160, 1127
1092, 1096, 1085, 1128
1148, 1149, 1120, 1064
1063, 1081, 1106, 1091
1051, 1029, 1010, 1037
1089, 1085, 1046, 1056
1068, 1071, 1012, 1022
1021, 1032, 1033, 998
952, 956, 969, 991
1014, 981, 955, 988
1023, 984, 979, 1015
1013, 1009, 990, 974
951, 1001, 1064, 1028
1020, 1045, 1066, 1055
1053, 1109, 1146, 1153
1184, 1207, 1176, 1203
1207, 1197, 1238, 1265
1293, 1282, 1279, 1312
1309, 1272, 1313, 1363
1373, 1397, 1495, 1539
1518, 1547, 1548, 1575
1561, 1500, 1459, 1464
1432, 1415, 1366, 1313
1241, 1187, 1187, 1186
1184, 1135, 1132, 1127
1104, 1142, 1158, 1143
1147, 1150, 1163, 1158
1149, 1169, 1156, 1191
1199, 1153, 1156, 1130
1129, 1128, 1147, 1157
1106, 1084, 1067, 1030
1001, 1038, 1024, 991
1004, 1001, 997, 987
979, 948, 948, 984
1040, 1049, 1036, 1038
1052, 1005, 980, 992
977, 998, 992, 978
976, 982, 983, 956
932, 939, 989, 976
963, 976, 989, 971
963, 970, 983, 996
1015, 1006, 1038, 1087
1046, 1060, 1064, 1029
1019, 1036, 1086, 1113
1097, 1077, 1097, 1113
1105, 1132, 1148, 1158
1200, 1206, 1199, 1196
1218, 1220, 1215, 1229
1244, 1245, 1250, 1258
1243, 1258, 1287, 1234
1202, 1241, 1236, 1212
1202, 1208, 1232, 1234
1228, 1227, 1260, 1266
1232, 1141, 1152, 1203
1180, 1151, 1143, 1156
1121, 1068, 1074, 1095
1090, 1096, 1070, 1068
1077, 1044, 1056, 1093
1094, 1114, 1129, 1130
1164, 1170, 1178, 1191
1202, 1270, 1302, 1288
1332, 1374, 1361, 1343
1323, 1343, 1348, 1327
1315, 1344, 1348, 1324
1361, 1388, 1404, 1456
1511, 1554, 1594, 1637
1673, 1648, 1634, 1631
1613, 1575, 1579, 1569
1516, 1467, 1470, 1436
1423, 1430, 1464, 1540
1548, 1537, 1561, 1595
1641, 1663, 1644, 1628
1653, 1647, 1620, 1587
1556, 1549, 1503, 1484
1491, 1440, 1394, 1371
1372, 1355, 1309, 1323
1297, 1268, 1247, 1229
1241, 1243, 1215, 1226
1231, 1194, 1180, 1183
1177, 1187, 1166, 1146
1132, 1127, 1140, 1127
1129, 1132, 1130, 1146
1134, 1127, 1123, 1131
1116, 1141, 1189, 1188
1133, 1127, 1130, 1119
1147, 1141, 1149, 1156
1158, 1171, 1186, 1194
1166, 1168, 1199, 1188
1188, 1192, 1181, 1173
1146, 1136, 1160, 1164
1174, 1184, 1160, 1183
1175, 1160, 1144, 1173
1156, 1121, 1125, 1126
1123, 1098, 1084, 1105
1094, 1098, 1100, 1088
1091, 1091, 1099, 1119
1103, 1087, 1076, 1093
1098, 1094, 1094, 1107
1138, 1119, 1135, 1146
1122, 1126, 1142, 1119
1078, 1075, 1101, 1111
1067, 1078, 1096, 1090
1107, 1111, 1128, 1162
1164, 1179, 1209, 1206
1200, 1250, 1268, 1288
1311, 1298, 1294, 1300
1305, 1312, 1310, 1332
1337, 1358, 1361, 1343
1328, 1298, 1298, 1326
1354, 1335, 1354, 1351
1315, 1299, 1307, 1322
1329, 1368, 1390, 1386
1374, 1376, 1345, 1319
1363, 1385, 1417, 1373
1296, 1265, 1263, 1295
1325, 1356, 1347, 1289
1288, 1305, 1319, 1282
1287, 1330, 1354, 1398
1382, 1360, 1414, 1464
1450, 1475, 1504, 1501
1546, 1594, 1648, 1731
1815, 1870, 1972, 2116
2199, 2274, 2394, 2526
2610, 2694, 2846, 2942
3050, 3164, 3180, 3223
3242, 3149, 3049, 2919
2799, 2681, 2523, 2418
2297, 2112, 1937, 1833
1709, 1611, 1542, 1463
1447, 1408, 1336, 1269
1221, 1213, 1222, 1215
1164, 1153, 1177, 1165
1140, 1137, 1130, 1104
1105, 1110, 1072, 1059
1085, 1065, 1035, 1046
1058, 1048, 1048, 1040
999, 986, 984, 995
999, 1003, 989, 968
1005, 1023, 1019, 1003
1011, 1047, 1041, 1052
1045, 1032, 1057, 1035
1026, 1060, 1084, 1113
1103, 1105, 1136, 1152
1176, 1198, 1223, 1193
1211, 1262, 1284, 1278
1300, 1366, 1398, 1414
1428, 1443, 1494, 1504
1531, 1576, 1584, 1579
1525, 1501, 1535, 1542
1528, 1537, 1473, 1449
1434, 1427, 1408, 1350
1295, 1243, 1238, 1225
1200, 1190, 1198, 1200
1200, 1208, 1203, 1177
1165, 1180, 1190, 1178
1189, 1231, 1206, 1218
1249, 1285, 1320, 1328
1328, 1326, 1317, 1320
1379, 1410, 1421, 1416
1408, 1427, 1449, 1424
1405, 1431, 1405, 1413
1438, 1391, 1322, 1325
1366, 1362, 1309, 1293
1293, 1296, 1313, 1338
1310, 1293, 1304, 1337
1352, 1297, 1319, 1356
1336, 1325, 1301, 1308
1332, 1304, 1274, 1273
1244, 1208, 1162, 1140
1139, 1113, 1072, 1091
1097, 1066, 1043, 1060
1060, 1055, 1078, 1065
1050, 1063, 1030, 1014
1044, 1026, 1003, 1000
993, 999, 992, 986
991, 1002, 1003, 986
988, 1009, 993, 971
949, 941, 957, 943
924, 947, 946, 937
929, 913, 958, 979
970, 955, 958, 951
974, 982, 989, 1003
1005, 1053, 1052, 1019
1043, 1042, 1053, 1099
1123, 1114, 1161, 1203
1182, 1183, 1240, 1240
1238, 1239, 1217, 1229
1251, 1247, 1250, 1231
1215, 1215, 1166, 1138
1118, 1094, 1091, 1100
1137, 1143, 1123, 1081
1057, 1059, 1080, 1073
1067, 1064, 1070, 1069
1063, 1064, 1105, 1103
1071, 1084, 1094, 1100
1107, 1105, 1088, 1084
1112, 1130, 1101, 1098
1112, 1095, 1065, 1065
1085, 1079, 1079, 1071
1074, 1088, 1082, 1050
1033, 1066, 1068, 1069
1080, 1087, 1097, 1060
1025, 1051, 1005, 987
1022, 1035, 993, 996
1014, 1036, 1066, 1050
998, 996, 1008, 1006
1000, 988, 977, 981
972, 1026, 1025, 981
1011, 1035, 1015, 990
1013, 1011, 1002, 1028
1049, 1045, 1056, 1057
1039, 1042, 1019, 1024
1062, 1061, 1053, 1072
1074, 1075, 1124, 1108
1126, 1146, 1167, 1186
1151, 1194, 1206, 1233
1289, 1318, 1344, 1380
1357, 1356, 1373, 1374
1417, 1388, 1382, 1380
1381, 1388, 1387, 1315
1322, 1308, 1338, 1297
1295, 1300, 1263, 1254
1308, 1281, 1237, 1241
1237, 1230, 1261, 1282
1313, 1318, 1424, 1490
1565, 1641, 1692, 1687
1630, 1592, 1545, 1548
1567, 1571, 1593, 1563
1505, 1458, 1464, 1417
1440, 1372, 1317, 1346
1289, 1272, 1279, 1243
1245, 1236, 1271, 1319
1299, 1269, 1262, 1306
1327, 1303, 1269, 1270
1308, 1314, 1322, 1343
1350, 1349, 1378, 1367
1390, 1444, 1492, 1480
1505, 1545, 1609, 1619
1598, 1625, 1617, 1650
1707, 1768, 1753, 1803
1852, 1871, 1825, 1864
1841, 1813, 1801, 1813
1763, 1716, 1701, 1681
1612, 1582, 1593, 1565
1494, 1448, 1452, 1446
1464, 1444, 1388, 1347
1355, 1381, 1397, 1347
1375, 1358, 1348, 1370
1403, 1393, 1357, 1368
1385, 1383, 1365, 1349
1331, 1310, 1317, 1277
1243, 1291, 1338, 1279
1240, 1284, 1260, 1272
1275, 1274, 1216, 1280
1260, 1315, 1348, 1350
1366, 1392, 1433, 1467
1574, 1532, 1517, 1546
1546, 1556, 1592, 1575
1548, 1524, 1500, 1481
1416, 1501, 1466, 1466
1464, 1425, 1436, 1350
1326, 1326, 1284, 1293
1306, 1289, 1262, 1286
1220, 1211, 1222, 1195
1182, 1163, 1174, 1171
1186, 1136, 1199, 1170
1165, 1170, 1207, 1175
1133, 1119, 1153, 1170
1173, 1205, 1171, 1188
1205, 1225, 1258, 1272
1241, 1293, 1319, 1347
1407, 1458, 1512, 1479
1453, 1445, 1458, 1463
1411, 1415, 1456, 1458
1482, 1487, 1421, 1376
1407, 1389, 1418, 1412
1413, 1441, 1528, 1516
1545, 1543, 1632, 1685
1748, 1738, 1797, 1866
1867, 1899, 1892, 1874
1857, 1861, 1864, 1870
1907, 1888, 1818, 1878
1915, 1851, 1853, 1881
1915, 2019, 2019, 2107
2129, 2172, 2233, 2216
2164, 2180, 2147, 2140
2170, 2090, 2096, 2026
2027, 1971, 1969, 1861
1809, 1752, 1720, 1711
1698, 1643, 1593, 1544
1541, 1536, 1491, 1470
1387, 1422, 1403, 1336
1298, 1311, 1301, 1300
1296, 1269, 1272, 1297
1265, 1220, 1294, 1229
1201, 1253, 1232, 1247
1277, 1267, 1266, 1253
1240, 1254, 1314, 1301
1297, 1292, 1268, 1221
1216, 1272, 1252, 1300
1269, 1242, 1224, 1237
1266, 1312, 1256, 1274
1308, 1310, 1322, 1313
1285, 1308, 1299, 1363
1436, 1427, 1462, 1496
1543, 1578, 1669, 1698
1726, 1795, 1930, 2018
2068, 2169, 2299, 2312
2234, 2128, 2048, 1924
1839, 1812, 1808, 1797
1720, 1752, 1641, 1557
1470, 1429, 1293, 1260
1159, 1164, 1163, 1140
1068, 1088, 1047, 1118
1079, 1040, 1071, 1017
988, 994, 993, 1008
1064, 1030, 1004, 1060
1021, 997, 1038, 1061
1010, 1003, 963, 1003
1013, 1004, 1018, 1015
976, 1015, 1048, 996
1026, 1011, 1026, 1011
1025, 1035, 1041, 995
1042, 1043, 1049, 1002
1000, 1007, 1014, 983
997, 1014, 1001, 1027
1013, 996, 1021, 1001
1007, 1016, 1010, 1038
1043, 1025, 989, 1042
1018, 1015, 1036, 989
998, 987, 1032, 1045
1032, 1031, 1001, 1025
1013, 1039, 1016, 1067
1038, 1071, 1069, 1052
1025, 998, 1043, 1038
1024, 1028, 1050, 1026
1041, 1019, 1034, 1054
1000, 1017, 1011, 1006
1042, 1051, 1038, 991
986, 990, 1011, 979
980, 981, 941, 995
999, 1011, 1004, 980
976, 992, 966, 954
957, 960, 973, 971
986, 1001, 969, 909
932, 979, 976, 954
946, 954, 978, 970
912, 941, 945, 963
933, 971, 978, 997
920, 955, 965, 940
884, 930, 944, 950
970, 965, 960, 1001
979, 962, 963, 930
929, 961, 973, 921
957, 978, 1012, 948
943, 958, 985, 991
924, 952, 956, 938
932, 932, 976, 929
987, 967, 1001, 986
1012, 1041, 1003, 993
1051, 1043, 1070, 1097
1076, 1102, 1085, 1090
1052, 1125, 1103, 1094
1021, 1099, 1105, 1117
1108, 1071, 1079, 1067
1092, 1085, 1117, 1065
1132, 1181, 1116, 1104
1086, 1116, 1112, 1093
1107, 1175, 1103, 1129
1124, 1131, 1173, 1182
1141, 1151, 1161, 1134
1165, 1190, 1163, 1140
1134, 1155, 1100, 1109
1115, 1101, 1095, 1125
1107, 1081, 1087, 1072
1039, 1014, 1046, 1050
1083, 1034, 1009, 1007
997, 982, 1013, 1052
1047, 958, 998, 1003
980, 995, 992, 988
977, 1002, 1052, 1060
1055, 1028, 1011, 1006
944, 997, 1043, 1025
1010, 1029, 1033, 1061
1046, 1058, 1025, 1048
1019, 1063, 1056, 1081
1088, 1065, 1111, 1103
1051, 1105, 1106, 1105
1113, 1118, 1152, 1151
1137, 1112, 1129, 1146
1204, 1158, 1166, 1193
1152, 1189, 1163, 1191
1158, 1206, 1189, 1247
1238, 1274, 1317, 1291
1331, 1316, 1294, 1310
1279, 1265, 1313, 1352
1388, 1347, 1452, 1455
1508, 1425, 1363, 1366
1391, 1285, 1337, 1264
1277, 1231, 1235, 1252
1225, 1221, 1176, 1166
1160, 1114, 1085, 1083
1108, 1122, 1045, 1022
1063, 1049, 1062, 1037
1029, 995, 1046, 1066
1030, 999, 1003, 1038
1014, 1011, 1053, 1066
1042, 994, 961, 977
984, 995, 967, 1022
992, 1009, 1006, 953
1014, 986, 1027, 1065
1058, 998, 1016, 1019
1024, 1059, 1008, 1045
1050, 1055, 1046, 994
1027, 1041, 994, 1044
992, 1014, 1003, 1016
1043, 1031, 1020, 1011
1015, 1054, 1074, 1050
1045, 1039, 1040, 1015
1055, 1064, 1066, 1069
1043, 1039, 986, 1020
1012, 1004, 1038, 1070
1068, 1020, 1024, 983
1016, 1035, 1043, 1071
1051, 1022, 977, 997
1014, 1020, 1026, 1024
1011, 1055, 1095, 1060
1064, 1044, 1041, 1078
1058, 1002, 1023, 1024
1036, 1054, 1082, 1059
1081, 1113, 1095, 1067
1074, 1107, 1073, 1109
1116, 1077, 1082, 1136
1149, 1157, 1118, 1134
1196, 1117, 1122, 1052
1058, 1102, 1110, 1107
1118, 1072, 1104, 1060
1063, 1046, 1058, 1038
1033, 1001, 1063, 1056
1066, 1032, 987, 1012
1014, 1030, 1057, 988
1009, 1000, 1016, 970
997, 999, 992, 995
962, 943, 969, 969
987, 1007, 1006, 985
964, 986, 950, 934
962, 932, 965, 962
974, 970, 923, 928
921, 937, 971, 956
948, 928, 940, 941
941, 932, 938, 906
917, 949, 932, 913
1001, 958, 932, 950
940, 972, 930, 936
948, 912, 963, 929
968, 985, 1004, 947
959, 988, 996, 992
970, 938, 1042, 1018
1028, 1043, 1000, 993
1019, 1037, 1008, 1013
1020, 1042, 1036, 1057
1051, 1018, 1035, 1035
989, 1054, 1049, 1011
1010, 991, 970, 972
980, 989, 1023, 980
942, 905, 973, 993
940, 941, 997, 944
935, 968, 993, 960
931, 944, 925, 952
963, 894, 934, 962
941, 931, 913, 937
939, 971, 923, 960
949, 945, 971, 1004
975, 949, 970, 934
926, 952, 948, 908
909, 998, 985, 954
917, 981, 1001, 1000
977, 1014, 970, 1048
1048, 1076, 1047, 1030
1041, 1074, 1039, 1065
1066, 1077, 1040, 1035
1024, 1059, 1059, 1058
1068, 1039, 1092, 1075
988, 1051, 1065, 1051
1018, 1043, 1034, 1057
1099, 1091, 1085, 1136
1115, 1083, 1124, 1119
1091, 1120, 1114, 1145
1083, 1122, 1108, 1089
1129, 1123, 1213, 1176
1190, 1192, 1162, 1200
1201, 1176, 1194, 1158
1224, 1192, 1223, 1162
1209, 1231, 1217, 1210
1185, 1185, 1167, 1189
1172, 1225, 1190, 1133
1163, 1113, 1145, 1093
1106, 1109, 1133, 1102
1094, 1094, 1130, 1098
1123, 1055, 1047, 1103
1082, 1097, 1091, 1140
1155, 1141, 1099, 1119
1166, 1116, 1138, 1117
1084, 1097, 1115, 1104
1133, 1101, 1148, 1157
1144, 1084, 1126, 1106
1107, 1104, 1109, 1158
1142, 1153, 1103, 1106
1111, 1100, 1116, 1145
1136, 1115, 1116, 1100
1132, 1124, 1118, 1119
1184, 1197, 1118, 1126
1171, 1108, 1102, 1068
1101, 1143, 1164, 1155
1141, 1104, 1145, 1162
1099, 1124, 1108, 1141
1154, 1162, 1142, 1143
1198, 1132, 1112, 1132
1109, 1113, 1073, 1090
1108, 1114, 1142, 1085
1119, 1162, 1111, 1076
1101, 1050, 1044, 1055
1117, 1044, 1044, 1057
1041, 1017, 1048, 1045
1033, 1031, 1044, 1013
1004, 1071, 997, 1031
1011, 1005, 1005, 995
952, 974, 1000, 1047
1004, 1005, 1109, 1023
1001, 1004, 1033, 1019
1004, 1004, 1005, 1002
1017, 995, 989, 1064
1061, 1011, 1041, 1032
1027, 1006, 1000, 990
988, 1023, 1067, 1073
1082, 1039, 1042, 1043
1052, 1049, 1063, 1029
1019, 1041, 1023, 1100
1061, 1024, 1054, 1074
1038, 1109, 1061, 1081
1053, 1074, 1096, 1065
1139, 1058, 1120, 1092
1063, 1065, 1065, 1059
1143, 1104, 1054, 1078
1046, 1074, 1073, 1070
1097, 1111, 1068, 1118
1039, 1046, 1085, 1089
1087, 1039, 1100, 1056
992, 1055, 1069, 1064
1083, 1055, 998, 1017
1074, 1073, 1061, 1012
1106, 1053, 1022, 1030
1053, 1023, 1050, 983
980, 1063, 1024, 1043
1065, 1020, 1024, 1072
1050, 1021, 977, 1055
993, 1004, 1057, 1047
1008, 1044, 1045, 1080
1100, 1004, 1043, 1075
1021, 1044, 1018, 1089
1075, 1016, 1011, 1051
1057, 1039, 1001, 1051
1057, 1078, 1013, 1015
1079, 1083, 1062, 1087
1025, 1083, 1055, 1038
1088, 1104, 1101, 1070
1139, 1129, 1121, 1128
1130, 1136, 1094, 1103
1088, 1136, 1154, 1161
1160, 1142, 1132, 1156
1172, 1180, 1154, 1217
1190, 1163, 1224, 1198
1144, 1175, 1196, 1214
1174, 1148, 1162, 1172
1168, 1211, 1182, 1150
1145, 1191, 1227, 1177
1280, 1247, 1239, 1269
1332, 1297, 1332, 1383
1344, 1359, 1373, 1349
1441, 1333, 1320, 1353
1287, 1318, 1347, 1259
1229, 1248, 1265, 1265
1265, 1265, 1265
*END

*EOF