File: xrd/raw/ZnOFeCl3.asc
*TYPE		=  Raw
*CLASS		=  ASCII CLASS
*SAMPLE		=  ZnOFeCl3
*COMMENT	=
*FNAME		=  ZnOFeCl3_Theta_2-Theta.asc
*DATE		=  03-Mar-17 15:55

*GROUP_COUNT	=  1
*GONIO		=  MiniFlex 300/600 +, 150
*ATTACHMENT	=  ASC-6
*ASC		=  0, 0, 0.000000, 0.000000
*FILTER		=  K-beta(x2)
*C_MONOCHRO	=  None, 0.000000
*SLIT_NAME	=  0, IHS
*SLIT_NAME	=  1, DS +
*SLIT_NAME	=  2, SS
*SLIT_NAME	=  3, RS
*COUNTER	=  D/teX Ultra, 0
*POS_FORMAT	=  0
*SCAN_AXIS	=  2theta/theta
*MEAS_MODE	=  Continuous Scanning
*TARGET		=  29
*XRAY_CHAR	=  K-ALPHA
*WAVE_LENGTH1	=  1.54059
*WAVE_LENGTH2	=  1.54441
*THICKNESS	=  0, 0.000000
*MU		=  0, 0.000000
*SCAN_MODE	=  2theta/theta
*SPEED_DIM	=  sec./step
*XUNIT		=  deg.
*YUNIT		=  counts
*SCALE_MODE	=  1
*REP_COUNT	=  0
*SE_COUNT	=  0
*STD_MATERIAL	=  Unknown, Unknown, 0.000000, 0.000000, 0.000000, 0.000000, 0.000000, 0.000000
*LATT_CONS	=  0, Unknown, Unknown, 0.000000, 0.000000, 0.000000, 0.000000, 0.000000, 0.000000
*SEC_COUNT	=  1
*TSPEC_SIZE	=  0
*EXTRA_SIZE	=  0
*MEMO		=

*BEGIN
*GROUP		=  0
*START		=  5
*STOP		=  90
*STEP		=  0.02
*OFFSET		=  0.000000
*SPEED		=  0.24
*SLIT_SPEC	=  0, 10.0mm, 10, 0.000000
*SLIT_SPEC	=  1, 0.625deg, 0.625, 0.000000
*SLIT_SPEC	=  2, 13.0mm, 13, 0.000000
*SLIT_SPEC	=  3, 13.0mm, 13, 0.000000
*KV		=  40
*MA		=  15
*LOW		=  0.000000
*HIGH		=  0.000000
*CTEMPER	=  0, 0.000000
*CTEMPER	=  1, 0.000000
*CTEMPER	=  2, 0.000000
*PAREX		=  0, 0.000000
*PAREX		=  1, 0.000000
*PAREX		=  2, 0.000000
*PAREX		=  3, 0.000000
*PAREX		=  4, 0.000000
*PAREX		=  5, 0.000000
*PAREX		=  6, 0.000000
*PAREX		=  7, 0.000000
*PAREX		=  8, 0.000000
*PAREX		=  9, 0.000000
*PAREX		=  10, 0.000000
*PAREX		=  11, 0.000000
*PAREX		=  12, 0.000000
*PAREX		=  13, 0.000000
*PAREX		=  14, 0.000000
*PAREX		=  15, 0.000000
*FULL_SCALE	=  31120
*INDEX		=  0, 0, 0
*COUNT		=  4251
1410, 1380, 1347, 1319
1299, 1358, 1373, 1328
1312, 1321, 1361, 1363
1351, 1294, 1309, 1332
1329, 1311, 1317, 1371
1378, 1292, 1289, 1361
1365, 1353, 1345, 1357
1317, 1283, 1316, 1322
1341, 1298, 1297, 1317
1226, 1204, 1261, 1278
1314, 1320, 1306, 1366
1347, 1309, 1306, 1297
1296, 1294, 1304, 1247
1234, 1296, 1293, 1278
1273, 1284, 1299, 1310
1304, 1311, 1354, 1346
1319, 1291, 1311, 1330
1349, 1320, 1271, 1277
1293, 1308, 1267, 1253
1253, 1245, 1257, 1303
1278, 1281, 1318, 1303
1275, 1293, 1320, 1283
1285, 1325, 1340, 1349
1324, 1333, 1315, 1290
1275, 1282, 1283, 1263
1300, 1253, 1247, 1285
1313, 1323, 1265, 1268
1319, 1271, 1252, 1277
1321, 1276, 1283, 1315
1310, 1288, 1338, 1362
1292, 1249, 1262, 1287
1315, 1325, 1269, 1225
1248, 1272, 1262, 1303
1322, 1319, 1324, 1340
1316, 1326, 1311, 1327
1322, 1316, 1294, 1286
1292, 1279, 1323, 1312
1271, 1289, 1252, 1264
1262, 1261, 1253, 1287
1323, 1296, 1319, 1338
1293, 1267, 1305, 1286
1294, 1326, 1320, 1317
1360, 1312, 1291, 1277
1267, 1285, 1286, 1307
1333, 1318, 1277, 1254
1298, 1291, 1286, 1285
1299, 1303, 1318, 1295
1267, 1267, 1291, 1319
1318, 1287, 1300, 1295
1299, 1278, 1290, 1293
1337, 1355, 1281, 1313
1336, 1306, 1325, 1370
1387, 1321, 1303, 1320
1316, 1319, 1321, 1348
1363, 1355, 1346, 1349
1340, 1355, 1357, 1333
1298, 1272, 1266, 1288
1326, 1353, 1379, 1355
1356, 1365, 1385, 1395
1360, 1318, 1290, 1329
1360, 1315, 1364, 1369
1400, 1392, 1381, 1364
1365, 1370, 1376, 1375
1359, 1395, 1405, 1381
1363, 1371, 1395, 1385
1348, 1378, 1426, 1429
1422, 1384, 1396, 1425
1427, 1444, 1446, 1392
1357, 1373, 1431, 1430
1388, 1398, 1462, 1451
1435, 1447, 1462, 1426
1409, 1409, 1433, 1436
1465, 1447, 1428, 1427
1417, 1452, 1479, 1450
1431, 1471, 1463, 1487
1455, 1440, 1440, 1471
1480, 1500, 1517, 1436
1451, 1510, 1483, 1492
1507, 1479, 1500, 1500
1514, 1550, 1522, 1526
1531, 1564, 1527, 1534
1557, 1525, 1516, 1477
1472, 1480, 1516, 1565
1534, 1503, 1503, 1544
1550, 1574, 1569, 1566
1502, 1508, 1517, 1566
1558, 1553, 1524, 1521
1521, 1552, 1587, 1533
1509, 1498, 1540, 1555
1599, 1629, 1582, 1558
1598, 1604, 1618, 1612
1639, 1612, 1618, 1582
1549, 1577, 1567, 1618
1616, 1592, 1612, 1649
1614, 1570, 1600, 1574
1525, 1517, 1550, 1593
1579, 1578, 1606, 1611
1550, 1575, 1606, 1596
1616, 1618, 1605, 1622
1622, 1628, 1605, 1638
1626, 1599, 1634, 1629
1652, 1681, 1614, 1671
1681, 1661, 1666, 1674
1636, 1584, 1607, 1626
1632, 1671, 1704, 1654
1650, 1664, 1641, 1682
1677, 1692, 1667, 1638
1666, 1671, 1626, 1631
1643, 1662, 1683, 1668
1668, 1698, 1724, 1722
1697, 1665, 1684, 1647
1678, 1690, 1694, 1684
1662, 1672, 1646, 1693
1717, 1692, 1681, 1719
1706, 1675, 1691, 1727
1735, 1701, 1693, 1685
1679, 1705, 1760, 1730
1732, 1724, 1696, 1697
1720, 1703, 1708, 1721
1708, 1739, 1725, 1706
1752, 1691, 1700, 1706
1710, 1745, 1753, 1756
1694, 1735, 1745, 1687
1677, 1704, 1717, 1707
1668, 1707, 1735, 1735
1755, 1726, 1716, 1751
1770, 1784, 1764, 1788
1781, 1748, 1732, 1767
1785, 1750, 1757, 1740
1756, 1767, 1743, 1791
1789, 1785, 1735, 1726
1752, 1749, 1779, 1790
1808, 1770, 1803, 1789
1705, 1734, 1773, 1805
1791, 1787, 1770, 1764
1767, 1803, 1835, 1818
1821, 1864, 1843, 1833
1838, 1799, 1834, 1822
1749, 1757, 1761, 1788
1832, 1804, 1766, 1764
1785, 1822, 1838, 1825
1847, 1877, 1802, 1810
1802, 1807, 1805, 1823
1825, 1803, 1826, 1804
1823, 1818, 1802, 1797
1782, 1783, 1813, 1823
1786, 1816, 1881, 1888
1836, 1810, 1867, 1828
1819, 1821, 1801, 1824
1827, 1786, 1757, 1803
1824, 1848, 1875, 1854
1839, 1829, 1873, 1863
1866, 1897, 1872, 1862
1863, 1839, 1825, 1833
1897, 1864, 1880, 1870
1902, 1935, 1946, 1846
1816, 1870, 1933, 1926
1848, 1907, 1921, 1886
1872, 1863, 1905, 1887
1916, 1883, 1868, 1847
1828, 1860, 1851, 1891
1891, 1898, 1899, 1869
1908, 1903, 1843, 1893
1911, 1977, 2013, 1969
2017, 2041, 1979, 1976
1941, 1906, 1911, 1935
1935, 1924, 1949, 1930
1932, 1926, 1914, 1910
1900, 1911, 1940, 1890
1936, 1972, 1927, 1947
1923, 1932, 1891, 1894
1953, 1994, 1947, 1898
1927, 1941, 1951, 1984
1930, 1900, 1942, 1986
1925, 1919, 1984, 1989
1953, 1908, 1927, 1992
1981, 1950, 1969, 1996
1967, 1934, 1983, 1937
1933, 1995, 2010, 1975
1941, 1970, 1983, 1996
1955, 1960, 1962, 1996
1998, 1956, 1979, 1973
1923, 1940, 1921, 1933
1958, 2002, 2031, 2013
1975, 1953, 1947, 1946
1966, 2047, 1991, 1992
2008, 1992, 1977, 2003
2024, 2025, 1992, 1991
2003, 1976, 1968, 1990
1962, 2021, 2036, 2032
2024, 1971, 1959, 1974
2006, 2038, 2048, 2045
2048, 2044, 2036, 2031
1983, 2032, 2045, 2066
2027, 2020, 2051, 1992
1959, 1972, 1994, 2006
2008, 2018, 2025, 2027
2041, 1981, 1954, 1984
1995, 1993, 1963, 1993
2011, 2011, 2028, 2050
2077, 2055, 1984, 1965
1987, 1994, 1960, 1970
2014, 2033, 2066, 2041
2014, 2010, 2056, 2064
2015, 2040, 1982, 2028
2041, 2060, 2044, 1975
2037, 2072, 2033, 2040
2063, 2104, 2100, 2034
1990, 2015, 2053, 2061
2101, 2050, 2066, 2111
2098, 2051, 2110, 2108
2021, 2039, 2068, 2047
2033, 2044, 2054, 2037
1989, 2013, 2043, 2098
2112, 2030, 2029, 2042
2025, 2007, 2042, 2081
2037, 2049, 2078, 2049
2000, 2005, 2014, 2037
2041, 2030, 2072, 2101
2095, 2080, 2067, 2021
2048, 2110, 2131, 2105
2081, 2121, 2096, 2074
2071, 2103, 2049, 2025
2077, 2095, 2105, 2099
2033, 2075, 2151, 2099
2091, 2072, 2060, 2108
2102, 2082, 2112, 2141
2109, 2104, 2105, 2067
2112, 2152, 2125, 2118
2094, 2104, 2090, 2087
2095, 2129, 2140, 2114
2127, 2132, 2063, 2042
2073, 2107, 2144, 2170
2177, 2172, 2186, 2215
2184, 2179, 2187, 2180
2198, 2272, 2263, 2221
2289, 2333, 2418, 2527
2649, 2780, 2967, 3124
3299, 3398, 3394, 3290
3164, 3004, 2871, 2745
2578, 2401, 2353, 2318
2304, 2280, 2220, 2206
2207, 2219, 2200, 2148
2186, 2186, 2171, 2166
2144, 2143, 2109, 2091
2126, 2147, 2138, 2181
2168, 2121, 2143, 2152
2202, 2247, 2232, 2178
2167, 2132, 2107, 2144
2186, 2169, 2183, 2129
2075, 2089, 2098, 2126
2174, 2129, 2117, 2151
2127, 2135, 2120, 2119
2152, 2107, 2104, 2159
2138, 2124, 2113, 2136
2146, 2137, 2147, 2131
2152, 2150, 2146, 2177
2222, 2211, 2186, 2177
2163, 2148, 2174, 2169
2129, 2151, 2162, 2147
2110, 2132, 2182, 2190
2154, 2133, 2157, 2190
2166, 2158, 2160, 2162
2159, 2184, 2152, 2129
2175, 2175, 2171, 2176
2190, 2243, 2322, 2237
2167, 2176, 2150, 2183
2219, 2190, 2186, 2180
2228, 2274, 2263, 2251
2209, 2196, 2203, 2224
2223, 2213, 2177, 2132
2156, 2159, 2124, 2126
2141, 2164, 2164, 2181
2210, 2197, 2225, 2186
2119, 2116, 2151, 2193
2198, 2193, 2211, 2173
2195, 2186, 2116, 2131
2139, 2152, 2131, 2124
2150, 2159, 2190, 2212
2174, 2128, 2142, 2169
2179, 2179, 2170, 2162
2174, 2178, 2157, 2185
2197, 2173, 2167, 2174
2160, 2128, 2136, 2156
2167, 2190, 2188, 2178
2190, 2202, 2166, 2187
2268, 2247, 2250, 2210
2195, 2187, 2173, 2193
2205, 2212, 2195, 2195
2212, 2201, 2161, 2161
2182, 2222, 2235, 2204
2236, 2233, 2199, 2160
2132, 2159, 2164, 2156
2185, 2185, 2202, 2197
2164, 2172, 2177, 2181
2179, 2188, 2149, 2115
2157, 2214, 2236, 2158
2132, 2186, 2217, 2192
2153, 2150, 2164, 2185
2179, 2138, 2141, 2171
2197, 2224, 2194, 2190
2250, 2228, 2188, 2175
2185, 2189, 2205, 2217
2169, 2181, 2209, 2222
2178, 2165, 2167, 2168
2175, 2159, 2161, 2191
2230, 2199, 2152, 2132
2201, 2269, 2273, 2235
2228, 2257, 2269, 2301
2345, 2333, 2334, 2440
2493, 2555, 2626, 2642
2561, 2452, 2445, 2406
2339, 2321, 2286, 2253
2243, 2225, 2215, 2213
2188, 2202, 2194, 2131
2166, 2207, 2242, 2227
2162, 2162, 2197, 2187
2198, 2224, 2170, 2187
2240, 2197, 2210, 2219
2172, 2212, 2205, 2186
2222, 2206, 2189, 2168
2182, 2217, 2191, 2175
2187, 2216, 2206, 2191
2190, 2164, 2156, 2223
2246, 2207, 2205, 2208
2182, 2190, 2240, 2244
2240, 2212, 2209, 2239
2267, 2256, 2193, 2222
2304, 2282, 2211, 2210
2238, 2220, 2207, 2221
2255, 2263, 2270, 2281
2307, 2320, 2316, 2400
2505, 2659, 2935, 3331
4014, 5080, 5828, 5452
4519, 4147, 4183, 3751
3015, 2555, 2393, 2340
2294, 2289, 2259, 2250
2270, 2284, 2300, 2326
2322, 2262, 2252, 2259
2220, 2219, 2266, 2270
2223, 2252, 2286, 2273
2264, 2260, 2266, 2286
2302, 2305, 2303, 2307
2262, 2237, 2282, 2297
2282, 2300, 2312, 2284
2285, 2293, 2323, 2365
2361, 2353, 2379, 2370
2428, 2478, 2468, 2529
2624, 2728, 2843, 2999
3141, 3310, 3626, 4068
4498, 5000, 5576, 6041
6224, 6033, 5702, 5373
5060, 4631, 4125, 3735
3449, 3248, 3086, 2862
2702, 2647, 2585, 2504
2485, 2528, 2448, 2326
2331, 2318, 2294, 2280
2275, 2296, 2317, 2326
2303, 2226, 2224, 2247
2240, 2294, 2293, 2259
2237, 2249, 2271, 2259
2215, 2207, 2243, 2232
2211, 2247, 2254, 2224
2205, 2203, 2233, 2293
2293, 2282, 2291, 2246
2229, 2322, 2369, 2399
2419, 2423, 2450, 2493
2473, 2417, 2377, 2350
2394, 2331, 2263, 2286
2296, 2274, 2302, 2326
2306, 2301, 2284, 2272
2271, 2305, 2295, 2265
2256, 2260, 2256, 2245
2261, 2322, 2347, 2344
2335, 2293, 2338, 2413
2467, 2456, 2472, 2588
2718, 2848, 3058, 3238
3301, 3279, 3280, 3227
3172, 3103, 3054, 3016
2989, 2998, 3018, 3058
3156, 3308, 3482, 3777
4169, 4579, 5010, 5251
5287, 5142, 4895, 4674
4443, 4195, 3881, 3586
3313, 3132, 2977, 2823
2676, 2607, 2584, 2540
2449, 2415, 2444, 2464
2440, 2420, 2367, 2332
2345, 2394, 2471, 2594
2749, 2891, 2979, 2982
2879, 2739, 2695, 2685
2594, 2471, 2392, 2346
2288, 2260, 2264, 2302
2339, 2295, 2229, 2226
2235, 2231, 2267, 2280
2280, 2242, 2239, 2220
2233, 2266, 2246, 2235
2280, 2290, 2310, 2335
2253, 2247, 2296, 2233
2233, 2265, 2283, 2243
2217, 2176, 2158, 2233
2250, 2201, 2221, 2217
2230, 2219, 2205, 2258
2258, 2237, 2241, 2281
2268, 2226, 2261, 2252
2186, 2198, 2234, 2230
2203, 2220, 2237, 2220
2204, 2177, 2182, 2232
2212, 2195, 2273, 2260
2225, 2228, 2239, 2223
2213, 2272, 2277, 2229
2252, 2273, 2288, 2265
2203, 2192, 2196, 2182
2263, 2292, 2237, 2206
2211, 2262, 2247, 2259
2287, 2245, 2210, 2228
2222, 2216, 2211, 2230
2234, 2217, 2197, 2217
2257, 2290, 2272, 2220
2188, 2219, 2242, 2239
2200, 2171, 2172, 2180
2213, 2287, 2296, 2255
2268, 2227, 2222, 2261
2255, 2287, 2241, 2223
2250, 2262, 2273, 2256
2220, 2266, 2256, 2237
2273, 2271, 2248, 2317
2305, 2262, 2301, 2332
2309, 2284, 2295, 2304
2271, 2239, 2206, 2157
2206, 2201, 2169, 2211
2235, 2231, 2212, 2216
2217, 2184, 2166, 2220
2233, 2217, 2171, 2196
2266, 2246, 2211, 2227
2274, 2237, 2233, 2309
2281, 2200, 2222, 2221
2222, 2234, 2235, 2207
2250, 2258, 2239, 2209
2235, 2241, 2246, 2241
2211, 2202, 2225, 2251
2313, 2292, 2279, 2258
2248, 2256, 2225, 2246
2298, 2308, 2319, 2282
2264, 2300, 2390, 2421
2407, 2462, 2463, 2512
2566, 2614, 2756, 2900
2923, 2974, 3028, 2980
2935, 2901, 2811, 2713
2620, 2575, 2536, 2532
2496, 2435, 2425, 2377
2362, 2370, 2315, 2295
2273, 2265, 2252, 2209
2223, 2252, 2279, 2286
2253, 2260, 2283, 2273
2287, 2283, 2252, 2239
2216, 2212, 2226, 2272
2185, 2133, 2241, 2236
2224, 2225, 2204, 2201
2205, 2214, 2239, 2206
2189, 2241, 2207, 2218
2233, 2261, 2267, 2233
2188, 2171, 2211, 2186
2186, 2184, 2179, 2190
2180, 2231, 2201, 2167
2204, 2193, 2208, 2218
2243, 2299, 2245, 2222
2201, 2242, 2225, 2211
2234, 2215, 2238, 2213
2227, 2260, 2217, 2190
2217, 2247, 2246, 2220
2257, 2294, 2264, 2293
2288, 2307, 2329, 2332
2320, 2333, 2293, 2263
2291, 2325, 2287, 2248
2259, 2250, 2216, 2189
2192, 2225, 2225, 2259
2236, 2187, 2185, 2218
2218, 2217, 2277, 2290
2259, 2241, 2236, 2235
2258, 2233, 2250, 2267
2269, 2277, 2264, 2273
2290, 2289, 2283, 2240
2219, 2248, 2235, 2195
2166, 2204, 2219, 2228
2221, 2223, 2247, 2221
2190, 2186, 2202, 2222
2186, 2165, 2180, 2230
2258, 2220, 2183, 2212
2238, 2229, 2229, 2226
2208, 2196, 2181, 2193
2241, 2245, 2192, 2205
2212, 2206, 2194, 2176
2151, 2178, 2232, 2237
2185, 2179, 2191, 2234
2230, 2211, 2202, 2191
2153, 2158, 2153, 2171
2206, 2223, 2235, 2211
2195, 2158, 2143, 2157
2211, 2209, 2228, 2214
2197, 2161, 2155, 2172
2226, 2237, 2226, 2221
2203, 2205, 2237, 2218
2232, 2268, 2234, 2215
2229, 2174, 2156, 2205
2233, 2231, 2208, 2176
2169, 2210, 2200, 2153
2213, 2225, 2193, 2144
2154, 2169, 2191, 2232
2225, 2229, 2225, 2193
2140, 2185, 2207, 2178
2203, 2215, 2238, 2237
2210, 2189, 2195, 2172
2197, 2216, 2173, 2156
2118, 2116, 2158, 2233
2209, 2256, 2296, 2240
2177, 2165, 2225, 2244
2224, 2177, 2210, 2295
2266, 2162, 2178, 2225
2206, 2211, 2219, 2216
2204, 2216, 2167, 2151
2167, 2203, 2184, 2177
2166, 2201, 2227, 2177
2125, 2144, 2178, 2186
2209, 2197, 2213, 2186
2168, 2215, 2234, 2227
2249, 2205, 2181, 2171
2158, 2173, 2222, 2228
2223, 2187, 2200, 2204
2209, 2182, 2204, 2268
2319, 2347, 2335, 2364
2367, 2303, 2260, 2254
2301, 2322, 2306, 2292
2225, 2219, 2229, 2249
2217, 2221, 2274, 2245
2203, 2193, 2179, 2218
2252, 2241, 2224, 2221
2233, 2207, 2240, 2245
2225, 2187, 2216, 2197
2133, 2139, 2161, 2166
2190, 2245, 2277, 2249
2226, 2252, 2215, 2193
2226, 2216, 2239, 2220
2192, 2236, 2279, 2270
2216, 2187, 2146, 2151
2205, 2242, 2248, 2283
2242, 2191, 2228, 2248
2296, 2299, 2264, 2254
2250, 2266, 2276, 2277
2257, 2262, 2289, 2256
2244, 2279, 2320, 2314
2283, 2296, 2346, 2407
2487, 2489, 2453, 2503
2623, 2706, 2760, 2856
2965, 3104, 3250, 3330
3317, 3247, 3201, 3164
3127, 3062, 3048, 2965
2830, 2716, 2659, 2580
2560, 2522, 2413, 2408
2400, 2336, 2306, 2296
2351, 2397, 2364, 2326
2284, 2228, 2189, 2228
2264, 2247, 2273, 2301
2200, 2189, 2278, 2260
2201, 2143, 2177, 2208
2198, 2231, 2232, 2211
2257, 2235, 2189, 2235
2229, 2205, 2155, 2175
2200, 2208, 2205, 2154
2151, 2181, 2204, 2198
2169, 2147, 2153, 2180
2195, 2184, 2208, 2199
2178, 2196, 2182, 2169
2176, 2271, 2309, 2208
2153, 2176, 2195, 2194
2194, 2226, 2194, 2185
2229, 2159, 2100, 2195
2236, 2170, 2141, 2162
2204, 2233, 2222, 2196
2188, 2208, 2169, 2154
2165, 2195, 2260, 2267
2225, 2190, 2168, 2165
2162, 2184, 2219, 2220
2202, 2231, 2271, 2231
2208, 2241, 2224, 2199
2242, 2265, 2268, 2233
2188, 2202, 2226, 2189
2181, 2195, 2233, 2250
2246, 2230, 2223, 2196
2189, 2168, 2140, 2135
2226, 2223, 2183, 2174
2142, 2179, 2227, 2225
2190, 2207, 2247, 2221
2153, 2197, 2249, 2246
2211, 2199, 2232, 2229
2186, 2176, 2200, 2184
2193, 2230, 2205, 2154
2163, 2215, 2262, 2228
2181, 2180, 2200, 2234
2253, 2245, 2260, 2291
2302, 2307, 2308, 2321
2293, 2236, 2233, 2285
2302, 2270, 2255, 2242
2232, 2226, 2200, 2197
2224, 2245, 2254, 2269
2270, 2258, 2284, 2294
2243, 2221, 2223, 2292
2350, 2321, 2289, 2309
2332, 2378, 2419, 2424
2440, 2464, 2484, 2525
2632, 2689, 2654, 2692
2860, 3027, 3173, 3334
3482, 3582, 3550, 3399
3264, 3228, 3240, 3210
3139, 3122, 3059, 2897
2737, 2664, 2630, 2562
2499, 2508, 2531, 2461
2370, 2329, 2343, 2354
2325, 2295, 2299, 2320
2326, 2290, 2270, 2288
2249, 2205, 2260, 2304
2283, 2245, 2240, 2288
2272, 2240, 2236, 2270
2275, 2210, 2278, 2270
2175, 2183, 2157, 2163
2210, 2210, 2223, 2229
2252, 2268, 2220, 2186
2171, 2212, 2219, 2185
2214, 2242, 2226, 2189
2170, 2195, 2186, 2152
2136, 2146, 2207, 2224
2179, 2168, 2205, 2226
2205, 2228, 2236, 2239
2218, 2227, 2234, 2232
2229, 2192, 2147, 2171
2230, 2236, 2235, 2210
2202, 2196, 2166, 2204
2250, 2230, 2221, 2272
2256, 2234, 2253, 2240
2227, 2229, 2208, 2175
2221, 2276, 2260, 2290
2280, 2258, 2273, 2313
2381, 2434, 2511, 2581
2652, 2813, 2929, 3010
3031, 2947, 2754, 2626
2632, 2712, 2754, 2729
2711, 2577, 2439, 2380
2344, 2343, 2316, 2260
2244, 2263, 2233, 2260
2304, 2291, 2260, 2279
2284, 2255, 2259, 2258
2242, 2253, 2294, 2310
2319, 2272, 2223, 2220
2289, 2283, 2274, 2327
2365, 2349, 2350, 2348
2384, 2440, 2469, 2482
2447, 2464, 2481, 2503
2488, 2457, 2444, 2429
2359, 2327, 2365, 2339
2313, 2307, 2302, 2288
2297, 2324, 2293, 2263
2230, 2260, 2252, 2223
2245, 2203, 2196, 2195
2211, 2235, 2224, 2210
2164, 2165, 2250, 2268
2223, 2221, 2235, 2198
2185, 2184, 2188, 2255
2224, 2183, 2171, 2181
2186, 2186, 2205, 2195
2163, 2169, 2213, 2207
2147, 2180, 2197, 2196
2190, 2163, 2201, 2156
2126, 2212, 2226, 2216
2222, 2191, 2205, 2176
2191, 2232, 2185, 2139
2152, 2172, 2200, 2201
2206, 2197, 2183, 2143
2144, 2182, 2202, 2213
2182, 2193, 2185, 2231
2249, 2221, 2209, 2172
2167, 2228, 2254, 2214
2227, 2220, 2177, 2197
2224, 2209, 2176, 2158
2174, 2142, 2114, 2131
2168, 2191, 2213, 2194
2148, 2194, 2273, 2256
2163, 2174, 2195, 2182
2175, 2151, 2200, 2226
2189, 2198, 2215, 2220
2214, 2191, 2183, 2184
2156, 2138, 2131, 2153
2233, 2209, 2159, 2148
2153, 2178, 2170, 2184
2171, 2231, 2202, 2193
2237, 2233, 2249, 2193
2202, 2211, 2236, 2191
2172, 2213, 2169, 2176
2164, 2185, 2200, 2196
2218, 2265, 2214, 2202
2199, 2155, 2212, 2224
2198, 2164, 2204, 2224
2182, 2191, 2149, 2148
2224, 2163, 2214, 2246
2209, 2168, 2145, 2193
2185, 2179, 2129, 2167
2166, 2102, 2156, 2143
2204, 2193, 2181, 2187
2215, 2250, 2231, 2240
2224, 2252, 2272, 2257
2254, 2283, 2265, 2281
2303, 2318, 2285, 2276
2336, 2306, 2293, 2383
2399, 2427, 2505, 2542
2554, 2560, 2541, 2584
2638, 2642, 2656, 2707
2707, 2761, 2802, 2850
2943, 3066, 3143, 3217
3208, 3118, 2971, 2910
2824, 2842, 2842, 2868
2848, 2743, 2709, 2662
2580, 2624, 2572, 2541
2552, 2546, 2543, 2605
2552, 2532, 2474, 2390
2346, 2326, 2354, 2358
2419, 2434, 2412, 2366
2322, 2275, 2273, 2247
2243, 2267, 2216, 2302
2322, 2263, 2233, 2245
2242, 2270, 2284, 2281
2311, 2225, 2251, 2277
2299, 2283, 2284, 2229
2230, 2262, 2232, 2283
2278, 2319, 2316, 2331
2372, 2380, 2480, 2481
2447, 2470, 2497, 2594
2609, 2665, 2747, 2856
2948, 3000, 3034, 3009
2991, 2956, 2961, 2874
2782, 2797, 2808, 2819
2696, 2631, 2611, 2562
2525, 2493, 2505, 2433
2403, 2386, 2360, 2298
2332, 2311, 2333, 2312
2265, 2284, 2240, 2227
2250, 2252, 2274, 2221
2212, 2191, 2199, 2246
2220, 2183, 2207, 2170
2182, 2179, 2236, 2212
2161, 2223, 2206, 2173
2164, 2214, 2217, 2192
2194, 2215, 2148, 2261
2246, 2215, 2248, 2204
2155, 2220, 2240, 2207
2187, 2226, 2263, 2276
2233, 2194, 2199, 2182
2176, 2194, 2156, 2171
2236, 2162, 2203, 2208
2201, 2161, 2225, 2243
2243, 2272, 2268, 2221
2167, 2168, 2275, 2267
2224, 2221, 2220, 2205
2195, 2205, 2203, 2211
2249, 2224, 2262, 2212
2218, 2264, 2235, 2259
2244, 2237, 2219, 2227
2233, 2285, 2402, 2426
2472, 2401, 2341, 2327
2235, 2233, 2250, 2293
2353, 2375, 2339, 2254
2291, 2196, 2167, 2207
2212, 2208, 2185, 2216
2222, 2190, 2161, 2227
2195, 2207, 2167, 2136
2215, 2213, 2226, 2190
2119, 2155, 2199, 2218
2222, 2204, 2215, 2226
2268, 2217, 2188, 2246
2265, 2245, 2189, 2230
2169, 2202, 2217, 2250
2173, 2193, 2197, 2166
2177, 2188, 2146, 2228
2209, 2197, 2233, 2146
2168, 2182, 2217, 2231
2279, 2266, 2192, 2216
2255, 2242, 2233, 2281
2231, 2276, 2313, 2297
2252, 2245, 2207, 2200
2256, 2230, 2212, 2266
2249, 2225, 2200, 2232
2179, 2217, 2243, 2188
2208, 2137, 2181, 2231
2230, 2196, 2164, 2224
2208, 2205, 2192, 2192
2168, 2179, 2184, 2216
2221, 2222, 2192, 2237
2219, 2199, 2191, 2187
2176, 2142, 2196, 2160
2130, 2194, 2212, 2252
2225, 2240, 2255, 2219
2249, 2297, 2241, 2241
2296, 2327, 2254, 2239
2209, 2284, 2259, 2243
2268, 2282, 2237, 2239
2197, 2172, 2205, 2179
2157, 2260, 2211, 2258
2227, 2260, 2236, 2241
2279, 2266, 2225, 2228
2188, 2181, 2196, 2220
2241, 2286, 2280, 2228
2238, 2236, 2253, 2241
2207, 2224, 2237, 2198
2207, 2190, 2191, 2235
2236, 2245, 2175, 2175
2165, 2175, 2238, 2233
2103, 2124, 2143, 2213
2157, 2163, 2213, 2215
2214, 2195, 2183, 2179
2197, 2214, 2158, 2205
2208, 2200, 2257, 2162
2216, 2266, 2121, 2148
2175, 2197, 2252, 2200
2151, 2166, 2142, 2142
2191, 2151, 2229, 2173
2221, 2270, 2190, 2167
2180, 2210, 2206, 2213
2192, 2198, 2234, 2196
2251, 2223, 2160, 2186
2175, 2240, 2220, 2217
2181, 2239, 2238, 2243
2249, 2198, 2236, 2185
2184, 2165, 2261, 2241
2175, 2237, 2271, 2206
2278, 2295, 2193, 2240
2191, 2300, 2297, 2341
2334, 2321, 2361, 2348
2357, 2480, 2474, 2471
2429, 2385, 2393, 2386
2354, 2322, 2336, 2317
2366, 2413, 2439, 2400
2362, 2308, 2320, 2335
2311, 2274, 2326, 2298
2335, 2321, 2228, 2254
2297, 2252, 2260, 2283
2249, 2247, 2232, 2247
2228, 2226, 2211, 2271
2232, 2217, 2255, 2209
2246, 2190, 2188, 2242
2188, 2228, 2219, 2199
2179, 2232, 2151, 2207
2201, 2271, 2189, 2215
2232, 2182, 2162, 2132
2150, 2238, 2291, 2330
2277, 2284, 2210, 2167
2212, 2225, 2195, 2214
2207, 2263, 2175, 2246
2225, 2235, 2285, 2312
2272, 2246, 2230, 2181
2220, 2232, 2250, 2288
2276, 2230, 2224, 2211
2190, 2158, 2170, 2177
2205, 2198, 2157, 2139
2197, 2255, 2189, 2165
2117, 2206, 2209, 2203
2211, 2157, 2149, 2137
2151, 2197, 2202, 2167
2167, 2150, 2187, 2217
2192, 2175, 2191, 2125
2150, 2203, 2217, 2134
2245, 2238, 2255, 2285
2221, 2191, 2242, 2163
2250, 2154, 2186, 2223
2166, 2145, 2259, 2232
2279, 2176, 2189, 2187
2203, 2186, 2209, 2250
2277, 2246, 2222, 2239
2247, 2250, 2256, 2300
2161, 2286, 2245, 2339
2303, 2344, 2375, 2299
2309, 2297, 2306, 2311
2361, 2338, 2331, 2379
2357, 2350, 2307, 2294
2352, 2321, 2345, 2326
2255, 2349, 2275, 2245
2341, 2276, 2306, 2237
2256, 2222, 2173, 2201
2183, 2181, 2193, 2197
2253, 2325, 2243, 2138
2183, 2233, 2180, 2149
2178, 2196, 2188, 2178
2199, 2209, 2152, 2184
2302, 2196, 2199, 2178
2181, 2144, 2155, 2130
2155, 2129, 2176, 2120
2195, 2143, 2175, 2234
2159, 2146, 2124, 2099
2246, 2226, 2199, 2227
2266, 2188, 2174, 2262
2224, 2167, 2218, 2272
2229, 2210, 2207, 2211
2231, 2283, 2198, 2228
2187, 2192, 2170, 2231
2202, 2195, 2248, 2209
2154, 2191, 2162, 2186
2197, 2193, 2227, 2184
2201, 2143, 2229, 2237
2200, 2140, 2168, 2128
2142, 2268, 2226, 2305
2294, 2272, 2283, 2250
2235, 2192, 2256, 2289
2270, 2237, 2219, 2186
2232, 2199, 2261, 2286
2219, 2207, 2221, 2221
2189, 2261, 2197, 2174
2190, 2127, 2135, 2183
2205, 2170, 2187, 2250
2202, 2273, 2263, 2279
2145, 2171, 2180, 2245
2265, 2173, 2104, 2173
2221, 2243, 2216, 2196
2246, 2152, 2210, 2146
2213, 2227, 2130, 2244
2189, 2179, 2162, 2178
2230, 2217, 2227, 2296
2247, 2167, 2212, 2267
2185, 2132, 2163, 2183
2222, 2274, 2195, 2279
2190, 2151, 2185, 2176
2203, 2121, 2220, 2168
2069, 2156, 2214, 2232
2161, 2151, 2129, 2236
2233, 2203, 2227, 2228
2148, 2125, 2202, 2174
2177, 2228, 2220, 2236
2130, 2164, 2219, 2200
2206, 2197, 2187, 2194
2161, 2236, 2177, 2179
2177, 2228, 2282, 2251
2162, 2159, 2226, 2123
2266, 2247, 2215, 2167
2155, 2138, 2180, 2190
2142, 2222, 2341, 2208
2214, 2264, 2220, 2200
2258, 2224, 2217, 2216
2255, 2270, 2340, 2250
2297, 2275, 2301, 2306
2307, 2268, 2295, 2315
2220, 2286, 2252, 2253
2204, 2241, 2202, 2230
2331, 2239, 2314, 2322
2297, 2258, 2195, 2211
2171, 2198, 2202, 2207
2199, 2212, 2202, 2210
2195, 2152, 2147, 2166
2252, 2200, 2151, 2149
2255, 2239, 2252, 2179
2180, 2140, 2158, 2195
2147, 2085, 2157, 2156
2273, 2168, 2219, 2145
2118, 2186, 2146, 2191
2165, 2147, 2242, 2210
2202, 2215, 2193, 2155
2185, 2197, 2172, 2224
2106, 2187, 2268, 2247
2248, 2186, 2173, 2197
2239, 2185, 2207, 2251
2183, 2151, 2151, 2199
2180, 2201, 2224, 2156
2206, 2199, 2212, 2232
2197, 2320, 2246, 2177
2206, 2190, 2201, 2210
2235, 2184, 2240, 2205
2206, 2241, 2215, 2303
2286, 2243, 2263, 2252
2265, 2308, 2299, 2263
2263, 2277, 2270, 2309
2270, 2254, 2320, 2244
2263, 2195, 2255, 2309
2317, 2234, 2269, 2231
2197, 2242, 2283, 2170
2238, 2224, 2267, 2242
2275, 2199, 2186, 2234
2192, 2242, 2245, 2234
2211, 2246, 2192, 2229
2163, 2189, 2194, 2226
2198, 2143, 2178, 2150
2200, 2159, 2137, 2217
2153, 2132, 2159, 2193
2226, 2105, 2202, 2219
2213, 2236, 2194, 2194
2210, 2190, 2140, 2131
2189, 2195, 2093, 2175
2233, 2203, 2160, 2197
2236, 2158, 2197, 2226
2248, 2249, 2201, 2211
2200, 2146, 2172, 2189
2262, 2240, 2204, 2260
2188, 2261, 2252, 2340
2360, 2283, 2320, 2377
2418, 2329, 2307, 2263
2319, 2295, 2288, 2355
2373, 2245, 2303, 2258
2224, 2384, 2371, 2258
2277, 2283, 2235, 2245
2234, 2265, 2242, 2292
2280, 2200, 2200, 2187
2263, 2232, 2206, 2256
2168, 2220, 2300, 2217
2199, 2173, 2199, 2146
2207, 2163, 2211, 2255
2252, 2193, 2240, 2177
2223, 2082, 2178, 2240
2178, 2143, 2154, 2180
2213, 2260, 2202, 2148
2167, 2253, 2126, 2171
2201, 2169, 2177, 2225
2139, 2230, 2215, 2139
2162, 2126, 2185, 2260
2213, 2143, 2205, 2231
2183, 2119, 2298, 2183
2109, 2191, 2143, 2202
2244, 2170, 2131, 2088
2217, 2187, 2127, 2187
2203, 2184, 2210, 2185
2253, 2175, 2264, 2264
2205, 2165, 2145, 2195
2201, 2128, 2127, 2140
2173, 2151, 2155, 2062
2088, 2144, 2222, 2159
2173, 2183, 2212, 2208
2184, 2138, 2236, 2194
2190, 2167, 2175, 2128
2149, 2153, 2128, 2164
2148, 2177, 2218, 2234
2235, 2166, 2150, 2106
2165, 2199, 2292, 2193
2226, 2245, 2215, 2245
2155, 2167, 2154, 2175
2181, 2239, 2236, 2191
2262, 2204, 2271, 2184
2178, 2151, 2216, 2197
2259, 2251, 2237, 2235
2197, 2307, 2288, 2274
2214, 2295, 2328, 2367
2351, 2359, 2308, 2314
2320, 2333, 2343, 2273
2320, 2271, 2320, 2270
2321, 2307, 2300, 2271
2269, 2299, 2317, 2336
2334, 2266, 2275, 2319
2339, 2298, 2361, 2240
2210, 2299, 2319, 2261
2282, 2247, 2275, 2317
2247, 2216, 2309, 2283
2291, 2245, 2169, 2096
2194, 2177, 2204, 2194
2195, 2207, 2142, 2314
2274, 2239, 2212, 2225
2209, 2201, 2191, 2231
2287, 2297, 2237, 2197
2193, 2142, 2164, 2231
2263, 2255, 2274, 2222
2247, 2206, 2156, 2156
2156, 2156, 2156
*END

*EOF