File: xrd/CuOCuCl2.xy
5.000	3595.000
5.060	3670.000
5.120	3410.000
5.180	3355.000
5.240	3375.000
5.300	3710.000
5.360	3390.000
5.420	3445.000
5.480	3380.000
5.540	3345.000
5.600	3420.000
5.660	3310.000
5.720	3455.000
5.780	3240.000
5.840	3320.000
5.900	3420.000
5.960	3175.000
6.020	3520.000
6.080	3385.000
6.140	3315.000
6.200	3255.000
6.260	3560.000
6.320	3345.000
6.380	3050.000
6.440	3300.000
6.500	3485.000
6.560	3215.000
6.620	3195.000
6.680	3200.000
6.740	3445.000
6.800	3290.000
6.860	3595.000
6.920	3245.000
6.980	3265.000
7.040	3290.000
7.100	3275.000
7.160	3165.000
7.220	3410.000
7.280	3620.000
7.340	3405.000
7.400	3220.000
7.460	3335.000
7.520	3415.000
7.580	3605.000
7.640	3515.000
7.700	3555.000
7.760	3865.000
7.820	3625.000
7.880	3865.000
7.940	4400.000
8.000	4460.000
8.060	3855.000
8.120	3675.000
8.180	3525.000
8.240	3290.000
8.300	3200.000
8.360	3270.000
8.420	3655.000
8.480	3845.000
8.540	3545.000
8.600	3300.000
8.660	3060.000
8.720	3055.000
8.780	3065.000
8.840	3180.000
8.900	3210.000
8.960	3125.000
9.020	3020.000
9.080	2880.000
9.140	3000.000
9.200	2985.000
9.260	3000.000
9.320	2850.000
9.380	2885.000
9.440	2845.000
9.500	2975.000
9.560	2795.000
9.620	2680.000
9.680	2770.000
9.740	2935.000
9.800	2885.000
9.860	2735.000
9.920	2825.000
9.980	2885.000
10.040	2720.000
10.100	2715.000
10.160	2805.000
10.220	2780.000
10.280	2695.000
10.340	2810.000
10.400	2775.000
10.460	2760.000
10.520	2865.000
10.580	2865.000
10.640	2840.000
10.700	3055.000
10.760	3175.000
10.820	2815.000
10.880	2825.000
10.940	2815.000
11.000	2710.000
11.060	2710.000
11.120	2680.000
11.180	2870.000
11.240	2720.000
11.300	2795.000
11.360	2725.000
11.420	2800.000
11.480	2805.000
11.540	2890.000
11.600	2750.000
11.660	2785.000
11.720	2740.000
11.780	2920.000
11.840	2830.000
11.900	2735.000
11.960	2775.000
12.020	2750.000
12.080	2735.000
12.140	2670.000
12.200	2775.000
12.260	2830.000
12.320	2870.000
12.380	2905.000
12.440	2765.000
12.500	2935.000
12.560	2865.000
12.620	2895.000
12.680	2870.000
12.740	2915.000
12.800	2825.000
12.860	3025.000
12.920	2935.000
12.980	3005.000
13.040	2975.000
13.100	2860.000
13.160	2890.000
13.220	2810.000
13.280	3005.000
13.340	2930.000
13.400	3050.000
13.460	2955.000
13.520	2925.000
13.580	2915.000
13.640	2925.000
13.700	2925.000
13.760	3010.000
13.820	3030.000
13.880	2975.000
13.940	2925.000
14.000	2845.000
14.060	2875.000
14.120	3030.000
14.180	2910.000
14.240	3025.000
14.300	3125.000
14.360	3025.000
14.420	3075.000
14.480	3000.000
14.540	3065.000
14.600	3105.000
14.660	2940.000
14.720	3040.000
14.780	3215.000
14.840	3325.000
14.900	3435.000
14.960	3285.000
15.020	3280.000
15.080	3385.000
15.140	3350.000
15.200	3315.000
15.260	3505.000
15.320	3740.000
15.380	3780.000
15.440	3880.000
15.500	3870.000
15.560	3860.000
15.620	4150.000
15.680	4375.000
15.740	4560.000
15.800	4825.000
15.860	5195.000
15.920	6240.000
15.980	8255.000
16.040	13590.000
16.100	25690.000
16.160	34095.000
16.220	19925.000
16.280	10560.000
16.340	7245.000
16.400	5970.000
16.460	5270.000
16.520	4580.000
16.580	4525.000
16.640	4220.000
16.700	4175.000
16.760	4095.000
16.820	4190.000
16.880	4030.000
16.940	4110.000
17.000	4190.000
17.060	3945.000
17.120	3960.000
17.180	4040.000
17.240	4350.000
17.300	3970.000
17.360	4100.000
17.420	4355.000
17.480	4865.000
17.540	5165.000
17.600	4910.000
17.660	4495.000
17.720	4340.000
17.780	4085.000
17.840	3770.000
17.900	3960.000
17.960	3750.000
18.020	3930.000
18.080	3700.000
18.140	3730.000
18.200	3695.000
18.260	3740.000
18.320	3815.000
18.380	3745.000
18.440	3760.000
18.500	3470.000
18.560	3600.000
18.620	3840.000
18.680	3800.000
18.740	3895.000
18.800	4115.000
18.860	4010.000
18.920	3790.000
18.980	3885.000
19.040	3705.000
19.100	3895.000
19.160	3620.000
19.220	3730.000
19.280	3700.000
19.340	3650.000
19.400	3920.000
19.460	3850.000
19.520	3860.000
19.580	3705.000
19.640	3730.000
19.700	3835.000
19.760	3785.000
19.820	3800.000
19.880	3630.000
19.940	3830.000
20.000	3775.000
20.060	3570.000
20.120	3720.000
20.180	3725.000
20.240	3585.000
20.300	3560.000
20.360	3545.000
20.420	3695.000
20.480	3650.000
20.540	3605.000
20.600	3630.000
20.660	3665.000
20.720	3735.000
20.780	3765.000
20.840	3635.000
20.900	3835.000
20.960	3945.000
21.020	3815.000
21.080	3750.000
21.140	3825.000
21.200	3850.000
21.260	3675.000
21.320	3745.000
21.380	3855.000
21.440	4070.000
21.500	4085.000
21.560	4260.000
21.620	4460.000
21.680	4760.000
21.740	5740.000
21.800	7910.000
21.860	13085.000
21.920	14920.000
21.980	9460.000
22.040	5630.000
22.100	4815.000
22.160	4405.000
22.220	4160.000
22.280	4175.000
22.340	4150.000
22.400	4065.000
22.460	3875.000
22.520	3875.000
22.580	4055.000
22.640	4075.000
22.700	4035.000
22.760	4235.000
22.820	4300.000
22.880	4010.000
22.940	4165.000
23.000	4045.000
23.060	3990.000
23.120	3990.000
23.180	4080.000
23.240	3970.000
23.300	4035.000
23.360	4035.000
23.420	3985.000
23.480	4065.000
23.540	4230.000
23.600	4440.000
23.660	5110.000
23.720	5040.000
23.780	4715.000
23.840	4315.000
23.900	4450.000
23.960	4440.000
24.020	4370.000
24.080	4250.000
24.140	3995.000
24.200	4040.000
24.260	3980.000
24.320	3885.000
24.380	4010.000
24.440	3990.000
24.500	4050.000
24.560	4100.000
24.620	4010.000
24.680	4115.000
24.740	3895.000
24.800	4035.000
24.860	3975.000
24.920	3890.000
24.980	4085.000
25.040	3990.000
25.100	3965.000
25.160	4175.000
25.220	4025.000
25.280	4020.000
25.340	4115.000
25.400	4000.000
25.460	4320.000
25.520	4280.000
25.580	4200.000
25.640	4315.000
25.700	4495.000
25.760	4675.000
25.820	4550.000
25.880	4755.000
25.940	5035.000
26.000	5225.000
26.060	4710.000
26.120	4715.000
26.180	4890.000
26.240	4735.000
26.300	4790.000
26.360	4895.000
26.420	5255.000
26.480	5660.000
26.540	6305.000
26.600	6535.000
26.660	5775.000
26.720	4945.000
26.780	5050.000
26.840	4905.000
26.900	4755.000
26.960	4535.000
27.020	4515.000
27.080	4395.000
27.140	4630.000
27.200	4515.000
27.260	4365.000
27.320	4350.000
27.380	4815.000
27.440	4640.000
27.500	4420.000
27.560	4545.000
27.620	4605.000
27.680	4575.000
27.740	4580.000
27.800	4410.000
27.860	4455.000
27.920	4395.000
27.980	4700.000
28.040	4645.000
28.100	4380.000
28.160	4640.000
28.220	4735.000
28.280	4795.000
28.340	5175.000
28.400	5690.000
28.460	6625.000
28.520	6175.000
28.580	6180.000
28.640	5920.000
28.700	6420.000
28.760	7375.000
28.820	8280.000
28.880	7400.000
28.940	6310.000
29.000	5640.000
29.060	5255.000
29.120	5075.000
29.180	4995.000
29.240	4735.000
29.300	4770.000
29.360	4630.000
29.420	4950.000
29.480	4765.000
29.540	4800.000
29.600	4650.000
29.660	4620.000
29.720	4570.000
29.780	4760.000
29.840	4590.000
29.900	4810.000
29.960	4750.000
30.020	4765.000
30.080	4730.000
30.140	4535.000
30.200	4835.000
30.260	4515.000
30.320	4460.000
30.380	4875.000
30.440	4780.000
30.500	4930.000
30.560	4840.000
30.620	4945.000
30.680	5340.000
30.740	5675.000
30.800	6175.000
30.860	5740.000
30.920	5935.000
30.980	5960.000
31.040	6090.000
31.100	6515.000
31.160	6885.000
31.220	7395.000
31.280	8220.000
31.340	9380.000
31.400	10560.000
31.460	10900.000
31.520	10070.000
31.580	8990.000
31.640	8330.000
31.700	7665.000
31.760	7055.000
31.820	6840.000
31.880	6635.000
31.940	6890.000
32.000	7200.000
32.060	8065.000
32.120	9260.000
32.180	9885.000
32.240	10810.000
32.300	10865.000
32.360	10615.000
32.420	10115.000
32.480	9335.000
32.540	8715.000
32.600	8585.000
32.660	8835.000
32.720	8335.000
32.780	7450.000
32.840	6380.000
32.900	6210.000
32.960	5940.000
33.020	5800.000
33.080	5455.000
33.140	5330.000
33.200	5325.000
33.260	5305.000
33.320	5250.000
33.380	5330.000
33.440	5455.000
33.500	5450.000
33.560	5615.000
33.620	5825.000
33.680	5995.000
33.740	6595.000
33.800	7445.000
33.860	9135.000
33.920	10610.000
33.980	10950.000
34.040	9340.000
34.100	7660.000
34.160	6765.000
34.220	6205.000
34.280	5965.000
34.340	5960.000
34.400	5940.000
34.460	5725.000
34.520	5845.000
34.580	5940.000
34.640	6295.000
34.700	6670.000
34.760	6730.000
34.820	6905.000
34.880	6535.000
34.940	6190.000
35.000	6075.000
35.060	6260.000
35.120	6650.000
35.180	6895.000
35.240	8035.000
35.300	9670.000
35.360	10145.000
35.420	10475.000
35.480	10530.000
35.540	11115.000
35.600	11545.000
35.660	11145.000
35.720	10175.000
35.780	9335.000
35.840	7965.000
35.900	7430.000
35.960	7060.000
36.020	6420.000
36.080	6130.000
36.140	6095.000
36.200	5555.000
36.260	5510.000
36.320	5385.000
36.380	5400.000
36.440	4935.000
36.500	4985.000
36.560	4910.000
36.620	4560.000
36.680	4720.000
36.740	4690.000
36.800	4740.000
36.860	4535.000
36.920	4520.000
36.980	4505.000
37.040	4500.000
37.100	4640.000
37.160	4490.000
37.220	4540.000
37.280	4510.000
37.340	4395.000
37.400	4485.000
37.460	4325.000
37.520	4305.000
37.580	4460.000
37.640	4350.000
37.700	4400.000
37.760	4480.000
37.820	4510.000
37.880	4590.000
37.940	5030.000
38.000	5450.000
38.060	4955.000
38.120	4905.000
38.180	4700.000
38.240	4695.000
38.300	4510.000
38.360	4615.000
38.420	4405.000
38.480	4485.000
38.540	4295.000
38.600	4265.000
38.660	4230.000
38.720	4275.000
38.780	4295.000
38.840	4220.000
38.900	4240.000
38.960	4395.000
39.020	4125.000
39.080	4400.000
39.140	4385.000
39.200	4645.000
39.260	4800.000
39.320	5365.000
39.380	5775.000
39.440	6580.000
39.500	7035.000
39.560	7990.000
39.620	8700.000
39.680	9040.000
39.740	8490.000
39.800	7980.000
39.860	7115.000
39.920	6420.000
39.980	5975.000
40.040	5535.000
40.100	5390.000
40.160	5005.000
40.220	4710.000
40.280	4720.000
40.340	4635.000
40.400	4860.000
40.460	4665.000
40.520	4780.000
40.580	5120.000
40.640	5205.000
40.700	5690.000
40.760	6380.000
40.820	6620.000
40.880	6070.000
40.940	5585.000
41.000	5210.000
41.060	4925.000
41.120	4595.000
41.180	4385.000
41.240	4320.000
41.300	4400.000
41.360	4205.000
41.420	4020.000
41.480	4040.000
41.540	4060.000
41.600	4170.000
41.660	4100.000
41.720	4025.000
41.780	4165.000
41.840	3960.000
41.900	3970.000
41.960	4065.000
42.020	3995.000
42.080	4230.000
42.140	4070.000
42.200	4020.000
42.260	4140.000
42.320	4135.000
42.380	4315.000
42.440	4325.000
42.500	4330.000
42.560	4125.000
42.620	4110.000
42.680	4230.000
42.740	4320.000
42.800	4235.000
42.860	4390.000
42.920	4540.000
42.980	4995.000
43.040	4970.000
43.100	4675.000
43.160	4305.000
43.220	4310.000
43.280	4255.000
43.340	4190.000
43.400	4070.000
43.460	4180.000
43.520	3950.000
43.580	4100.000
43.640	4145.000
43.700	4115.000
43.760	4395.000
43.820	4330.000
43.880	4320.000
43.940	4280.000
44.000	4205.000
44.060	4250.000
44.120	4210.000
44.180	4385.000
44.240	4295.000
44.300	4470.000
44.360	4560.000
44.420	4765.000
44.480	4635.000
44.540	5150.000
44.600	5670.000
44.660	6440.000
44.720	7180.000
44.780	6580.000
44.840	5980.000
44.900	5175.000
44.960	4575.000
45.020	4410.000
45.080	4550.000
45.140	4590.000
45.200	4895.000
45.260	5220.000
45.320	4940.000
45.380	4680.000
45.440	4705.000
45.500	4440.000
45.560	4490.000
45.620	4290.000
45.680	4350.000
45.740	4160.000
45.800	4205.000
45.860	4070.000
45.920	4220.000
45.980	4240.000
46.040	4360.000
46.100	4400.000
46.160	4195.000
46.220	4260.000
46.280	4175.000
46.340	4130.000
46.400	4125.000
46.460	4195.000
46.520	4240.000
46.580	4170.000
46.640	4295.000
46.700	4265.000
46.760	4140.000
46.820	4240.000
46.880	4250.000
46.940	4225.000
47.000	4420.000
47.060	4575.000
47.120	4525.000
47.180	4490.000
47.240	4625.000
47.300	4800.000
47.360	5010.000
47.420	5310.000
47.480	5210.000
47.540	5250.000
47.600	5625.000
47.660	5760.000
47.720	5875.000
47.780	5945.000
47.840	6355.000
47.900	6645.000
47.960	7340.000
48.020	7615.000
48.080	8385.000
48.140	9120.000
48.200	10040.000
48.260	9925.000
48.320	9895.000
48.380	9245.000
48.440	9040.000
48.500	8430.000
48.560	7720.000
48.620	7285.000
48.680	6755.000
48.740	6245.000
48.800	5845.000
48.860	5790.000
48.920	5690.000
48.980	5880.000
49.040	6270.000
49.100	6280.000
49.160	5790.000
49.220	5865.000
49.280	5365.000
49.340	5230.000
49.400	5125.000
49.460	5100.000
49.520	5310.000
49.580	5120.000
49.640	5135.000
49.700	4875.000
49.760	5475.000
49.820	5490.000
49.880	5540.000
49.940	5895.000
50.000	5825.000
50.060	5990.000
50.120	5835.000
50.180	5895.000
50.240	5575.000
50.300	5260.000
50.360	5045.000
50.420	4945.000
50.480	4820.000
50.540	4640.000
50.600	4490.000
50.660	4455.000
50.720	4495.000
50.780	4440.000
50.840	4545.000
50.900	4580.000
50.960	4525.000
51.020	4595.000
51.080	4505.000
51.140	4450.000
51.200	4610.000
51.260	4630.000
51.320	4655.000
51.380	4505.000
51.440	4615.000
51.500	4860.000
51.560	4605.000
51.620	4580.000
51.680	4465.000
51.740	4440.000
51.800	4240.000
51.860	4320.000
51.920	4515.000
51.980	4500.000
52.040	4655.000
52.100	4400.000
52.160	4435.000
52.220	4405.000
52.280	4135.000
52.340	4320.000
52.400	4390.000
52.460	4325.000
52.520	4515.000
52.580	4225.000
52.640	4305.000
52.700	4315.000
52.760	4480.000
52.820	4620.000
52.880	4515.000
52.940	4510.000
53.000	4690.000
53.060	4620.000
53.120	4535.000
53.180	4635.000
53.240	4945.000
53.300	5085.000
53.360	5275.000
53.420	5035.000
53.480	5265.000
53.540	5115.000
53.600	5225.000
53.660	4945.000
53.720	4910.000
53.780	4805.000
53.840	4615.000
53.900	4845.000
53.960	4655.000
54.020	4595.000
54.080	4425.000
54.140	4460.000
54.200	4480.000
54.260	4605.000
54.320	5085.000
54.380	5060.000
54.440	4940.000
54.500	4680.000
54.560	4270.000
54.620	4540.000
54.680	4330.000
54.740	4265.000
54.800	4565.000
54.860	4490.000
54.920	4575.000
54.980	4275.000
55.040	4335.000
55.100	4510.000
55.160	4480.000
55.220	4475.000
55.280	4520.000
55.340	4560.000
55.400	4370.000
55.460	4560.000
55.520	4570.000
55.580	4350.000
55.640	4560.000
55.700	4395.000
55.760	4405.000
55.820	4295.000
55.880	4550.000
55.940	4590.000
56.000	4520.000
56.060	4570.000
56.120	4695.000
56.180	4710.000
56.240	4470.000
56.300	4560.000
56.360	4510.000
56.420	4785.000
56.480	4305.000
56.540	4460.000
56.600	4275.000
56.660	4380.000
56.720	4635.000
56.780	4435.000
56.840	4425.000
56.900	4415.000
56.960	4360.000
57.020	4575.000
57.080	4955.000
57.140	5010.000
57.200	5445.000
57.260	5900.000
57.320	6225.000
57.380	5990.000
57.440	5450.000
57.500	5500.000
57.560	4820.000
57.620	4425.000
57.680	4460.000
57.740	4310.000
57.800	4320.000
57.860	4330.000
57.920	4340.000
57.980	4140.000
58.040	4020.000
58.100	4200.000
58.160	4230.000
58.220	4195.000
58.280	4535.000
58.340	4260.000
58.400	4280.000
58.460	4220.000
58.520	4195.000
58.580	3930.000
58.640	3985.000
58.700	4050.000
58.760	3915.000
58.820	4005.000
58.880	3955.000
58.940	3970.000
59.000	4140.000
59.060	4140.000
59.120	4070.000
59.180	4105.000
59.240	4145.000
59.300	4180.000
59.360	3960.000
59.420	4000.000
59.480	4085.000
59.540	4005.000
59.600	3985.000
59.660	3955.000
59.720	3955.000
59.780	3925.000
59.840	3965.000
59.900	4040.000
59.960	3825.000
60.020	4025.000
60.080	3955.000
60.140	4075.000
60.200	4005.000
60.260	3940.000
60.320	3960.000
60.380	3930.000
60.440	4025.000
60.500	4050.000
60.560	4115.000
60.620	3865.000
60.680	3900.000
60.740	3965.000
60.800	4105.000
60.860	3985.000
60.920	3990.000
60.980	3965.000
61.040	4025.000
61.100	3925.000
61.160	4160.000
61.220	4120.000
61.280	4110.000
61.340	4150.000
61.400	4280.000
61.460	4305.000
61.520	4300.000
61.580	4315.000
61.640	4205.000
61.700	4075.000
61.760	4145.000
61.820	4280.000
61.880	4235.000
61.940	4300.000
62.000	4290.000
62.060	4315.000
62.120	4440.000
62.180	4375.000
62.240	4160.000
62.300	4240.000
62.360	4260.000
62.420	4185.000
62.480	4155.000
62.540	4240.000
62.600	4215.000
62.660	4255.000
62.720	4080.000
62.780	4250.000
62.840	4145.000
62.900	4270.000
62.960	4375.000
63.020	4420.000
63.080	4270.000
63.140	4335.000
63.200	4240.000
63.260	4390.000
63.320	4280.000
63.380	4340.000
63.440	4525.000
63.500	4365.000
63.560	4550.000
63.620	4730.000
63.680	4745.000
63.740	4945.000
63.800	4705.000
63.860	5000.000
63.920	5015.000
63.980	5015.000
64.040	4910.000
64.100	4860.000
64.160	5025.000
64.220	4795.000
64.280	4680.000
64.340	4840.000
64.400	4710.000
64.460	4460.000
64.520	4470.000
64.580	4320.000
64.640	4405.000
64.700	4135.000
64.760	4385.000
64.820	4275.000
64.880	4160.000
64.940	4160.000
65.000	4290.000
65.060	4295.000
65.120	4295.000
65.180	4265.000
65.240	4410.000
65.300	4320.000
65.360	4285.000
65.420	4425.000
65.480	4315.000
65.540	4315.000
65.600	4545.000
65.660	4275.000
65.720	4510.000
65.780	4275.000
65.840	4285.000
65.900	4220.000
65.960	4105.000
66.020	4065.000
66.080	4085.000
66.140	4045.000
66.200	4115.000
66.260	3900.000
66.320	4050.000
66.380	3905.000
66.440	4105.000
66.500	3905.000
66.560	3960.000
66.620	4000.000
66.680	4095.000
66.740	4100.000
66.800	3970.000
66.860	3965.000
66.920	3925.000
66.980	4085.000
67.040	3880.000
67.100	4100.000
67.160	3945.000
67.220	4045.000
67.280	4075.000
67.340	3985.000
67.400	4135.000
67.460	4120.000
67.520	4210.000
67.580	4230.000
67.640	4100.000
67.700	4215.000
67.760	4265.000
67.820	4175.000
67.880	4070.000
67.940	4130.000
68.000	4260.000
68.060	4250.000
68.120	4240.000
68.180	4350.000
68.240	4230.000
68.300	4590.000
68.360	4330.000
68.420	4560.000
68.480	4760.000
68.540	5190.000
68.600	4615.000
68.660	4665.000
68.720	4435.000
68.780	4640.000
68.840	4205.000
68.900	4400.000
68.960	4250.000
69.020	4060.000
69.080	4095.000
69.140	4130.000
69.200	4220.000
69.260	4230.000
69.320	4290.000
69.380	4200.000
69.440	4395.000
69.500	4360.000
69.560	4300.000
69.620	4010.000
69.680	4095.000
69.740	4030.000
69.800	3750.000
69.860	3870.000
69.920	3860.000
69.980	4130.000
70.040	3750.000
70.100	3835.000
70.160	3605.000
70.220	3905.000
70.280	3850.000
70.340	3780.000
70.400	3650.000
70.460	3740.000
70.520	3690.000
70.580	3670.000
70.640	3680.000
70.700	3815.000
70.760	3970.000
70.820	3635.000
70.880	3735.000
70.940	3740.000
71.000	3640.000
71.060	3830.000
71.120	3755.000
71.180	3735.000
71.240	3755.000
71.300	3770.000
71.360	3795.000
71.420	3655.000
71.480	3985.000
71.540	3830.000
71.600	3715.000
71.660	3710.000
71.720	3825.000
71.780	3705.000
71.840	3700.000
71.900	3880.000
71.960	4020.000
72.020	3910.000
72.080	3990.000
72.140	3855.000
72.200	4075.000
72.260	4000.000
72.320	3890.000
72.380	4100.000
72.440	4215.000
72.500	4325.000
72.560	4165.000
72.620	4405.000
72.680	4285.000
72.740	4420.000
72.800	4695.000
72.860	4620.000
72.920	4845.000
72.980	4865.000
73.040	4825.000
73.100	4875.000
73.160	4860.000
73.220	5090.000
73.280	4805.000
73.340	4895.000
73.400	4600.000
73.460	4620.000
73.520	4690.000
73.580	4440.000
73.640	4440.000
73.700	4190.000
73.760	4325.000
73.820	4145.000
73.880	4145.000
73.940	4100.000
74.000	4165.000
74.060	4055.000
74.120	4075.000
74.180	4245.000
74.240	4190.000
74.300	4250.000
74.360	4165.000
74.420	4195.000
74.480	4280.000
74.540	4265.000
74.600	4075.000
74.660	4125.000
74.720	4180.000
74.780	4060.000
74.840	4180.000
74.900	4425.000
74.960	4035.000
75.020	4330.000
75.080	4225.000
75.140	3955.000
75.200	4430.000
75.260	4280.000
75.320	4355.000
75.380	4355.000
75.440	4495.000
75.500	4615.000
75.560	4505.000
75.620	4535.000
75.680	4410.000
75.740	4525.000
75.800	4275.000
75.860	4490.000
75.920	4550.000
75.980	4435.000
76.040	4745.000
76.100	4365.000
76.160	4625.000
76.220	4475.000
76.280	4475.000
76.340	4500.000
76.400	4245.000
76.460	4480.000
76.520	4285.000
76.580	4535.000
76.640	4485.000
76.700	4550.000
76.760	4565.000
76.820	4610.000
76.880	4630.000
76.940	4690.000
77.000	4550.000
77.060	4645.000
77.120	4640.000
77.180	4615.000
77.240	4400.000
77.300	4480.000
77.360	4155.000
77.420	4155.000
77.480	4185.000
77.540	4055.000
77.600	4115.000
77.660	3840.000
77.720	4005.000
77.780	3790.000
77.840	3975.000
77.900	3785.000
77.960	3745.000
78.020	3665.000
78.080	3775.000
78.140	3770.000
78.200	3745.000
78.260	3775.000
78.320	3740.000
78.380	3830.000
78.440	3555.000
78.500	3845.000
78.560	3840.000
78.620	3680.000
78.680	3820.000
78.740	3620.000
78.800	3805.000
78.860	3775.000
78.920	3755.000
78.980	3620.000
79.040	3695.000
79.100	3785.000
79.160	3820.000
79.220	3915.000
79.280	3710.000
79.340	3695.000
79.400	3780.000
79.460	3770.000
79.520	3765.000
79.580	3760.000
79.640	3885.000
79.700	3800.000
79.760	3870.000
79.820	3895.000
79.880	3885.000
79.940	3635.000
80.000	3725.000
80.060	3770.000
80.120	3855.000
80.180	3640.000
80.240	3780.000
80.300	3790.000
80.360	3640.000
80.420	3725.000
80.480	3640.000
80.540	3790.000
80.600	3625.000
80.660	3565.000
80.720	3700.000
80.780	3590.000
80.840	3550.000
80.900	3625.000
80.960	3595.000
81.020	3505.000
81.080	3775.000
81.140	3645.000
81.200	3600.000
81.260	3660.000
81.320	3610.000
81.380	3835.000
81.440	3730.000
81.500	3815.000
81.560	3805.000
81.620	3455.000
81.680	3705.000
81.740	3780.000
81.800	3825.000
81.860	3820.000
81.920	3840.000
81.980	3580.000
82.040	3780.000
82.100	3685.000
82.160	3825.000
82.220	3795.000
82.280	3755.000
82.340	3710.000
82.400	3835.000
82.460	3695.000
82.520	3700.000
82.580	3660.000
82.640	3715.000
82.700	3855.000
82.760	3580.000
82.820	3800.000
82.880	3740.000
82.940	3800.000
83.000	3835.000
83.060	3785.000
83.120	3850.000
83.180	3895.000
83.240	3965.000
83.300	3830.000
83.360	3850.000
83.420	4080.000
83.480	3910.000
83.540	3895.000
83.600	3800.000
83.660	3955.000
83.720	4055.000
83.780	4065.000
83.840	4110.000
83.900	4200.000
83.960	4155.000
84.020	4060.000
84.080	3985.000
84.140	4345.000
84.200	4130.000
84.260	4005.000
84.320	3925.000
84.380	4065.000
84.440	3965.000
84.500	3880.000
84.560	4100.000
84.620	3890.000
84.680	4000.000
84.740	3785.000
84.800	4115.000
84.860	3735.000
84.920	3645.000
84.980	3680.000
85.040	4080.000
85.100	3825.000
85.160	3920.000
85.220	3755.000
85.280	3760.000
85.340	3750.000
85.400	3785.000
85.460	3750.000
85.520	3725.000
85.580	3780.000
85.640	3585.000
85.700	3805.000
85.760	3655.000
85.820	3580.000
85.880	3800.000
85.940	3955.000
86.000	3785.000
86.060	3800.000
86.120	3855.000
86.180	3870.000
86.240	3850.000
86.300	4000.000
86.360	3965.000
86.420	3815.000
86.480	3830.000
86.540	3620.000
86.600	3680.000
86.660	3535.000
86.720	3675.000
86.780	3800.000
86.840	3795.000
86.900	3580.000
86.960	3820.000
87.020	3755.000
87.080	3830.000
87.140	3790.000
87.200	3990.000
87.260	3830.000
87.320	3900.000
87.380	3770.000
87.440	3765.000
87.500	3735.000
87.560	3635.000
87.620	3745.000
87.680	3560.000
87.740	3800.000
87.800	3760.000
87.860	3665.000
87.920	3760.000
87.980	3825.000
88.040	3640.000
88.100	3760.000
88.160	3820.000
88.220	3635.000
88.280	3730.000
88.340	3780.000
88.400	3680.000
88.460	3965.000
88.520	3940.000
88.580	3875.000
88.640	3705.000
88.700	3790.000
88.760	3640.000
88.820	3730.000
88.880	3580.000
88.940	3690.000
89.000	3860.000
89.060	3765.000
89.120	3655.000
89.180	3805.000
89.240	3630.000
89.300	3810.000
89.360	3750.000
89.420	3845.000
89.480	3670.000
89.540	3700.000
89.600	3685.000
89.660	3850.000
89.720	3745.000
89.780	3735.000
89.840	3700.000
89.900	3885.000
89.960	3715.000
90.000	3715.000