File: xrd/CuOGPinCuCl2.xy
5.000	2575.000
5.080	2679.167
5.160	2783.333
5.240	2687.500
5.320	2691.667
5.400	2666.667
5.480	2704.167
5.560	2716.667
5.640	2600.000
5.720	2666.667
5.800	2570.833
5.880	2508.333
5.960	2512.500
6.040	2525.000
6.120	2516.667
6.200	2404.167
6.280	2541.667
6.360	2637.500
6.440	2495.833
6.520	2608.333
6.600	2683.333
6.680	2558.333
6.760	2600.000
6.840	2645.833
6.920	2450.000
7.000	2616.667
7.080	2537.500
7.160	2487.500
7.240	2520.833
7.320	2545.833
7.400	2583.333
7.480	2512.500
7.560	2466.667
7.640	2512.500
7.720	2450.000
7.800	2470.833
7.880	2554.167
7.960	2491.667
8.040	2541.667
8.120	2516.667
8.200	2500.000
8.280	2466.667
8.360	2429.167
8.440	2491.667
8.520	2508.333
8.600	2370.833
8.680	2391.667
8.760	2208.333
8.840	2416.667
8.920	2441.667
9.000	2325.000
9.080	2366.667
9.160	2454.167
9.240	2525.000
9.320	2416.667
9.400	2437.500
9.480	2416.667
9.560	2383.333
9.640	2458.333
9.720	2395.833
9.800	2395.833
9.880	2316.667
9.960	2220.833
10.040	2358.333
10.120	2487.500
10.200	2345.833
10.280	2495.833
10.360	2383.333
10.440	2508.333
10.520	2429.167
10.600	2412.500
10.680	2500.000
10.760	2429.167
10.840	2516.667
10.920	2500.000
11.000	2541.667
11.080	2508.333
11.160	2450.000
11.240	2429.167
11.320	2566.667
11.400	2579.167
11.480	2620.833
11.560	2625.000
11.640	2554.167
11.720	2608.333
11.800	2637.500
11.880	2708.333
11.960	2525.000
12.040	2666.667
12.120	2741.667
12.200	2729.167
12.280	2754.167
12.360	2600.000
12.440	2808.333
12.520	2812.500
12.600	2712.500
12.680	2816.667
12.760	2670.833
12.840	2700.000
12.920	2720.833
13.000	2675.000
13.080	2850.000
13.160	2737.500
13.240	2929.167
13.320	2808.333
13.400	2770.833
13.480	2829.167
13.560	2850.000
13.640	2970.833
13.720	2895.833
13.800	2816.667
13.880	2995.833
13.960	2895.833
14.040	2858.333
14.120	3116.667
14.200	3062.500
14.280	3016.667
14.360	3075.000
14.440	3137.500
14.520	3495.833
14.600	3287.500
14.680	3166.667
14.760	3145.833
14.840	3166.667
14.920	3316.667
15.000	3366.667
15.080	3358.333
15.160	3470.833
15.240	3645.833
15.320	4029.167
15.400	4287.500
15.480	4925.000
15.560	13012.500
15.640	23237.500
15.720	26837.500
15.800	27995.833
15.880	30287.500
15.960	48300.000
16.040	534645.833
16.120	2798291.667
16.200	518679.167
16.280	49641.667
16.360	30687.500
16.440	24966.667
16.520	19120.833
16.600	14341.667
16.680	13300.000
16.760	12462.500
16.840	11954.167
16.920	11241.667
17.000	10579.167
17.080	10075.000
17.160	9937.500
17.240	9729.167
17.320	9554.167
17.400	9345.833
17.480	9050.000
17.560	8637.500
17.640	8379.167
17.720	8320.833
17.800	7925.000
17.880	7762.500
17.960	7583.333
18.040	7362.500
18.120	7350.000
18.200	7220.833
18.280	7116.667
18.360	7254.167
18.440	7170.833
18.520	6787.500
18.600	6579.167
18.680	6570.833
18.760	6504.167
18.840	6108.333
18.920	6170.833
19.000	6066.667
19.080	5837.500
19.160	5820.833
19.240	5666.667
19.320	5620.833
19.400	5379.167
19.480	5325.000
19.560	5437.500
19.640	5216.667
19.720	5337.500
19.800	5045.833
19.880	4954.167
19.960	4937.500
20.040	4779.167
20.120	5037.500
20.200	4741.667
20.280	5129.167
20.360	4662.500
20.440	4462.500
20.520	4295.833
20.600	4604.167
20.680	4562.500
20.760	4987.500
20.840	5083.333
20.920	4787.500
21.000	4516.667
21.080	4529.167
21.160	5079.167
21.240	5266.667
21.320	5391.667
21.400	5870.833
21.480	6375.000
21.560	6516.667
21.640	7179.167
21.720	9175.000
21.800	43133.333
21.880	205495.833
21.960	137879.167
22.040	22154.167
22.120	7816.667
22.200	6695.833
22.280	6020.833
22.360	5141.667
22.440	4820.833
22.520	4954.167
22.600	4658.333
22.680	4570.833
22.760	4637.500
22.840	4604.167
22.920	4412.500
23.000	4500.000
23.080	4616.667
23.160	4383.333
23.240	4341.667
23.320	4383.333
23.400	4329.167
23.480	4308.333
23.560	4458.333
23.640	4379.167
23.720	4287.500
23.800	4362.500
23.880	4883.333
23.960	5095.833
24.040	4479.167
24.120	4320.833
24.200	4287.500
24.280	4154.167
24.360	4108.333
24.440	4233.333
24.520	4062.500
24.600	4225.000
24.680	4191.667
24.760	4162.500
24.840	4279.167
24.920	4125.000
25.000	4191.667
25.080	4200.000
25.160	4179.167
25.240	4087.500
25.320	4162.500
25.400	4329.167
25.480	4204.167
25.560	4175.000
25.640	4187.500
25.720	4416.667
25.800	4316.667
25.880	4441.667
25.960	4350.000
26.040	4508.333
26.120	4241.667
26.200	4475.000
26.280	4533.333
26.360	4783.333
26.440	4750.000
26.520	4700.000
26.600	4550.000
26.680	4212.500
26.760	4408.333
26.840	4166.667
26.920	4266.667
27.000	4337.500
27.080	4141.667
27.160	4304.167
27.240	4270.833
27.320	4204.167
27.400	4333.333
27.480	4362.500
27.560	4166.667
27.640	4062.500
27.720	4308.333
27.800	4212.500
27.880	4179.167
27.960	4208.333
28.040	4025.000
28.120	4379.167
28.200	4395.833
28.280	4341.667
28.360	4387.500
28.440	4858.333
28.520	4745.833
28.600	4387.500
28.680	4370.833
28.760	4570.833
28.840	4666.667
28.920	4404.167
29.000	4383.333
29.080	4400.000
29.160	4291.667
29.240	4445.833
29.320	4212.500
29.400	4425.000
29.480	4316.667
29.560	4220.833
29.640	4291.667
29.720	4341.667
29.800	4316.667
29.880	4179.167
29.960	4341.667
30.040	4470.833
30.120	4204.167
30.200	4300.000
30.280	4250.000
30.360	4279.167
30.440	4495.833
30.520	4650.000
30.600	4733.333
30.680	4783.333
30.760	4991.667
30.840	5195.833
30.920	5216.667
31.000	5504.167
31.080	5670.833
31.160	6137.500
31.240	6604.167
31.320	7362.500
31.400	7912.500
31.480	7695.833
31.560	7200.000
31.640	6837.500
31.720	6658.333
31.800	6570.833
31.880	6525.000
31.960	6812.500
32.040	7225.000
32.120	8475.000
32.200	9383.333
32.280	9916.667
32.360	9933.333
32.440	11450.000
32.520	17191.667
32.600	134379.167
32.680	226408.333
32.760	105612.500
32.840	14170.833
32.920	8770.833
33.000	7608.333
33.080	6816.667
33.160	6045.833
33.240	5712.500
33.320	5662.500
33.400	5479.167
33.480	5333.333
33.560	5366.667
33.640	5145.833
33.720	5466.667
33.800	5150.000
33.880	5916.667
33.960	5666.667
34.040	5250.000
34.120	5150.000
34.200	5162.500
34.280	5212.500
34.360	5295.833
34.440	5345.833
34.520	5170.833
34.600	5433.333
34.680	5866.667
34.760	5787.500
34.840	5720.833
34.920	5950.000
35.000	6116.667
35.080	6270.833
35.160	6762.500
35.240	10441.667
35.320	23020.833
35.400	18750.000
35.480	11637.500
35.560	9633.333
35.640	8820.833
35.720	8091.667
35.800	7229.167
35.880	6650.000
35.960	6300.000
36.040	5945.833
36.120	5804.167
36.200	5191.667
36.280	5320.833
36.360	5075.000
36.440	5000.000
36.520	4829.167
36.600	5062.500
36.680	4833.333
36.760	4766.667
36.840	4616.667
36.920	4695.833
37.000	4650.000
37.080	4620.833
37.160	4450.000
37.240	4487.500
37.320	4500.000
37.400	4562.500
37.480	4637.500
37.560	4425.000
37.640	4350.000
37.720	4420.833
37.800	4445.833
37.880	4775.000
37.960	5737.500
38.040	5583.333
38.120	4745.833
38.200	4320.833
38.280	4354.167
38.360	4558.333
38.440	4350.000
38.520	4300.000
38.600	4383.333
38.680	4325.000
38.760	4404.167
38.840	4441.667
38.920	4225.000
39.000	4383.333
39.080	4541.667
39.160	4533.333
39.240	4754.167
39.320	4820.833
39.400	5295.833
39.480	5833.333
39.560	6379.167
39.640	6604.167
39.720	6170.833
39.800	5608.333
39.880	5275.000
39.960	4991.667
40.040	4879.167
40.120	4537.500
40.200	4541.667
40.280	4420.833
40.360	4291.667
40.440	4287.500
40.520	4341.667
40.600	4408.333
40.680	4958.333
40.760	6041.667
40.840	5175.000
40.920	4516.667
41.000	4220.833
41.080	4137.500
41.160	4041.667
41.240	4216.667
41.320	4154.167
41.400	4008.333
41.480	4129.167
41.560	4104.167
41.640	4170.833
41.720	4175.000
41.800	4108.333
41.880	4070.833
41.960	4220.833
42.040	4083.333
42.120	4366.667
42.200	4275.000
42.280	4058.333
42.360	4150.000
42.440	4262.500
42.520	4212.500
42.600	4400.000
42.680	3900.000
42.760	4154.167
42.840	4175.000
42.920	4270.833
43.000	4295.833
43.080	4395.833
43.160	4241.667
43.240	4279.167
43.320	4208.333
43.400	4295.833
43.480	4158.333
43.560	4262.500
43.640	4262.500
43.720	4312.500
43.800	4487.500
43.880	4170.833
43.960	4429.167
44.040	4404.167
44.120	4583.333
44.200	4600.000
44.280	5000.000
44.360	5091.667
44.440	5320.833
44.520	5883.333
44.600	9704.167
44.680	48458.333
44.760	39095.833
44.840	26937.500
44.920	8829.167
45.000	5658.333
45.080	5191.667
45.160	4816.667
45.240	4870.833
45.320	4420.833
45.400	4529.167
45.480	4408.333
45.560	4470.833
45.640	4350.000
45.720	4254.167
45.800	4345.833
45.880	4358.333
45.960	4320.833
46.040	4191.667
46.120	4354.167
46.200	4287.500
46.280	4262.500
46.360	4329.167
46.440	4462.500
46.520	4291.667
46.600	4279.167
46.680	4483.333
46.760	4466.667
46.840	4383.333
46.920	4462.500
47.000	4583.333
47.080	4745.833
47.160	4700.000
47.240	4766.667
47.320	4895.833
47.400	5150.000
47.480	5145.833
47.560	5425.000
47.640	5487.500
47.720	5979.167
47.800	6362.500
47.880	6645.833
47.960	7191.667
48.040	7591.667
48.120	8350.000
48.200	8750.000
48.280	8750.000
48.360	8104.167
48.440	7537.500
48.520	6733.333
48.600	6379.167
48.680	6033.333
48.760	5841.667
48.840	5504.167
48.920	5525.000
49.000	7208.333
49.080	7516.667
49.160	6537.500
49.240	5695.833
49.320	5004.167
49.400	5083.333
49.480	5479.167
49.560	5495.833
49.640	5691.667
49.720	6191.667
49.800	8037.500
49.880	30520.833
49.960	42600.000
50.040	28054.167
50.120	15000.000
50.200	6341.667
50.280	5662.500
50.360	4941.667
50.440	4845.833
50.520	4787.500
50.600	4591.667
50.680	4487.500
50.760	4604.167
50.840	4566.667
50.920	4475.000
51.000	4479.167
51.080	4420.833
51.160	4533.333
51.240	4479.167
51.320	4562.500
51.400	4554.167
51.480	4408.333
51.560	4504.167
51.640	4279.167
51.720	4341.667
51.800	3995.833
51.880	4304.167
51.960	4266.667
52.040	4400.000
52.120	4320.833
52.200	4320.833
52.280	4220.833
52.360	4216.667
52.440	4279.167
52.520	4333.333
52.600	4208.333
52.680	4087.500
52.760	4312.500
52.840	4316.667
52.920	4358.333
53.000	4254.167
53.080	4445.833
53.160	4491.667
53.240	4550.000
53.320	4816.667
53.400	4625.000
53.480	4758.333
53.560	4629.167
53.640	4500.000
53.720	4475.000
53.800	4312.500
53.880	4250.000
53.960	4195.833
54.040	4266.667
54.120	4141.667
54.200	4300.000
54.280	5625.000
54.360	5470.833
54.440	5208.333
54.520	4670.833
54.600	4295.833
54.680	4175.000
54.760	4245.833
54.840	4033.333
54.920	4183.333
55.000	4170.833
55.080	4095.833
55.160	4108.333
55.240	4037.500
55.320	4037.500
55.400	4029.167
55.480	3920.833
55.560	4050.000
55.640	4087.500
55.720	4000.000
55.800	4050.000
55.880	4166.667
55.960	5275.000
56.040	4600.000
56.120	4795.833
56.200	4325.000
56.280	4220.833
56.360	4062.500
56.440	4087.500
56.520	4020.833
56.600	4175.000
56.680	4141.667
56.760	3941.667
56.840	4350.000
56.920	4075.000
57.000	4229.167
57.080	4187.500
57.160	4487.500
57.240	5245.833
57.320	5654.167
57.400	5000.000
57.480	4704.167
57.560	4283.333
57.640	4183.333
57.720	3900.000
57.800	4062.500
57.880	4025.000
57.960	4108.333
58.040	4037.500
58.120	4183.333
58.200	5625.000
58.280	6241.667
58.360	4987.500
58.440	5104.167
58.520	4095.833
58.600	4125.000
58.680	4150.000
58.760	4075.000
58.840	3962.500
58.920	4041.667
59.000	4020.833
59.080	4004.167
59.160	3945.833
59.240	3995.833
59.320	3812.500
59.400	3925.000
59.480	3825.000
59.560	3970.833
59.640	3929.167
59.720	3929.167
59.800	3908.333
59.880	3870.833
59.960	3854.167
60.040	3991.667
60.120	3787.500
60.200	3829.167
60.280	3933.333
60.360	3887.500
60.440	3883.333
60.520	4058.333
60.600	3862.500
60.680	4054.167
60.760	4083.333
60.840	4075.000
60.920	3991.667
61.000	4116.667
61.080	3933.333
61.160	4175.000
61.240	4158.333
61.320	4037.500
61.400	4212.500
61.480	3900.000
61.560	4066.667
61.640	4054.167
61.720	4045.833
61.800	4120.833
61.880	4091.667
61.960	4162.500
62.040	4162.500
62.120	4204.167
62.200	4154.167
62.280	4250.000
62.360	4158.333
62.440	4087.500
62.520	4133.333
62.600	4145.833
62.680	4162.500
62.760	4116.667
62.840	4200.000
62.920	4150.000
63.000	4175.000
63.080	4154.167
63.160	4037.500
63.240	4225.000
63.320	4204.167
63.400	4316.667
63.480	4341.667
63.560	4479.167
63.640	4695.833
63.720	4920.833
63.800	4712.500
63.880	4812.500
63.960	4708.333
64.040	4637.500
64.120	4708.333
64.200	4716.667
64.280	4575.000
64.360	4737.500
64.440	4595.833
64.520	4558.333
64.600	4545.833
64.680	4362.500
64.760	4212.500
64.840	4383.333
64.920	4379.167
65.000	4166.667
65.080	4333.333
65.160	4470.833
65.240	4308.333
65.320	4400.000
65.400	4262.500
65.480	4616.667
65.560	4587.500
65.640	4433.333
65.720	4383.333
65.800	4666.667
65.880	4300.000
65.960	4645.833
66.040	4383.333
66.120	4241.667
66.200	4416.667
66.280	4279.167
66.360	4333.333
66.440	4429.167
66.520	4429.167
66.600	4445.833
66.680	4304.167
66.760	4366.667
66.840	4475.000
66.920	4216.667
67.000	4420.833
67.080	4604.167
67.160	4508.333
67.240	4700.000
67.320	4575.000
67.400	4841.667
67.480	4695.833
67.560	4891.667
67.640	4679.167
67.720	5025.000
67.800	4987.500
67.880	5212.500
67.960	5233.333
68.040	5887.500
68.120	6566.667
68.200	7350.000
68.280	8370.833
68.360	12375.000
68.440	43008.333
68.520	115141.667
68.600	48491.667
68.680	52541.667
68.760	44529.167
68.840	13366.667
68.920	7937.500
69.000	6462.500
69.080	5766.667
69.160	5633.333
69.240	5558.333
69.320	5450.000
69.400	5166.667
69.480	5191.667
69.560	5858.333
69.640	6529.167
69.720	5012.500
69.800	5512.500
69.880	4950.000
69.960	4266.667
70.040	4200.000
70.120	4383.333
70.200	4241.667
70.280	4237.500
70.360	4291.667
70.440	4275.000
70.520	4150.000
70.600	4166.667
70.680	4225.000
70.760	4258.333
70.840	4300.000
70.920	4195.833
71.000	4091.667
71.080	4150.000
71.160	4083.333
71.240	4208.333
71.320	4083.333
71.400	4091.667
71.480	4137.500
71.560	4195.833
71.640	4187.500
71.720	4083.333
71.800	4075.000
71.880	4066.667
71.960	4175.000
72.040	4129.167
72.120	4233.333
72.200	4345.833
72.280	4325.000
72.360	4204.167
72.440	4533.333
72.520	4625.000
72.600	4945.833
72.680	5000.000
72.760	4925.000
72.840	5100.000
72.920	5016.667
73.000	5112.500
73.080	5258.333
73.160	5054.167
73.240	5175.000
73.320	5000.000
73.400	4804.167
73.480	4754.167
73.560	4775.000
73.640	4854.167
73.720	4500.000
73.800	4475.000
73.880	4350.000
73.960	4204.167
74.040	4250.000
74.120	4104.167
74.200	4262.500
74.280	4533.333
74.360	4666.667
74.440	4354.167
74.520	4587.500
74.600	4416.667
74.680	4429.167
74.760	4200.000
74.840	4429.167
74.920	4212.500
75.000	4595.833
75.080	4600.000
75.160	4375.000
75.240	4458.333
75.320	4541.667
75.400	4454.167
75.480	4787.500
75.560	4358.333
75.640	4604.167
75.720	4612.500
75.800	4533.333
75.880	4695.833
75.960	4325.000
76.040	4637.500
76.120	4608.333
76.200	4633.333
76.280	4566.667
76.360	4512.500
76.440	4358.333
76.520	4533.333
76.600	4650.000
76.680	4633.333
76.760	4608.333
76.840	4720.833
76.920	4654.167
77.000	4637.500
77.080	4654.167
77.160	4612.500
77.240	4616.667
77.320	4258.333
77.400	4270.833
77.480	4308.333
77.560	4254.167
77.640	4104.167
77.720	4054.167
77.800	4266.667
77.880	4150.000
77.960	3991.667
78.040	3779.167
78.120	3845.833
78.200	3795.833
78.280	3791.667
78.360	3895.833
78.440	3937.500
78.520	3833.333
78.600	3837.500
78.680	3762.500
78.760	3854.167
78.840	3691.667
78.920	3779.167
79.000	3862.500
79.080	3658.333
79.160	3691.667
79.240	3745.833
79.320	3670.833
79.400	3929.167
79.480	3691.667
79.560	3791.667
79.640	3750.000
79.720	3895.833
79.800	4000.000
79.880	3808.333
79.960	3870.833
80.040	3720.833
80.120	3662.500
80.200	3866.667
80.280	3616.667
80.360	3591.667
80.440	3879.167
80.520	3816.667
80.600	3845.833
80.680	3562.500
80.760	3604.167
80.840	3808.333
80.920	3579.167
81.000	3795.833
81.080	3729.167
81.160	3779.167
81.240	3600.000
81.320	3570.833
81.400	3625.000
81.480	3716.667
81.560	3716.667
81.640	3729.167
81.720	3895.833
81.800	3620.833
81.880	3658.333
81.960	3829.167
82.040	3766.667
82.120	3716.667
82.200	3654.167
82.280	3820.833
82.360	3633.333
82.440	3841.667
82.520	3837.500
82.600	3879.167
82.680	3650.000
82.760	3891.667
82.840	3779.167
82.920	3650.000
83.000	3837.500
83.080	4025.000
83.160	3625.000
83.240	3950.000
83.320	3904.167
83.400	3983.333
83.480	3862.500
83.560	3833.333
83.640	3891.667
83.720	3725.000
83.800	4162.500
83.880	3904.167
83.960	4112.500
84.040	3966.667
84.120	4129.167
84.200	4070.833
84.280	4025.000
84.360	4029.167
84.440	3945.833
84.520	3845.833
84.600	4100.000
84.680	4066.667
84.760	4320.833
84.840	4129.167
84.920	4075.000
85.000	4250.000
85.080	4100.000
85.160	3987.500
85.240	3929.167
85.320	3854.167
85.400	3850.000
85.480	3795.833
85.560	3912.500
85.640	3833.333
85.720	3733.333
85.800	4025.000
85.880	3995.833
85.960	4079.167
86.040	3970.833
86.120	3966.667
86.200	3900.000
86.280	3783.333
86.360	3887.500
86.440	3891.667
86.520	3779.167
86.600	3716.667
86.680	3775.000
86.760	3670.833
86.840	3820.833
86.920	3725.000
87.000	3787.500
87.080	3812.500
87.160	3754.167
87.240	3787.500
87.320	3829.167
87.400	3875.000
87.480	3708.333
87.560	3716.667
87.640	3700.000
87.720	3875.000
87.800	3816.667
87.880	3745.833
87.960	3654.167
88.040	3595.833
88.120	3750.000
88.200	3912.500
88.280	3933.333
88.360	4020.833
88.440	3854.167
88.520	3704.167
88.600	3750.000
88.680	3704.167
88.760	4054.167
88.840	3983.333
88.920	3879.167
89.000	3925.000
89.080	4154.167
89.160	4333.333
89.240	4241.667
89.320	4800.000
89.400	6754.167
89.480	10641.667
89.560	8525.000
89.640	6020.833
89.720	6870.833
89.800	8070.833
89.880	5741.667
89.960	4516.667
90.040	4433.333
90.120	4075.000
90.200	4058.333
90.280	3608.333
90.360	3637.500
90.440	3825.000
90.520	3687.500
90.600	3779.167
90.680	3704.167
90.760	3483.333
90.840	3791.667
90.920	3787.500
91.000	3545.833
91.080	3837.500
91.160	3758.333
91.240	3495.833
91.320	3504.167
91.400	3741.667
91.480	3558.333
91.560	3754.167
91.640	3733.333
91.720	3658.333
91.800	3566.667
91.880	3758.333
91.960	3825.000
92.040	3695.833
92.120	3795.833
92.200	3729.167
92.280	3566.667
92.360	3575.000
92.440	3579.167
92.520	3787.500
92.600	3691.667
92.680	3804.167
92.760	3633.333
92.840	3950.000
92.920	3704.167
93.000	3737.500
93.080	3762.500
93.160	3391.667
93.240	3695.833
93.320	3670.833
93.400	3687.500
93.480	3637.500
93.560	3629.167
93.640	3716.667
93.720	3791.667
93.800	3545.833
93.880	3550.000
93.960	3687.500
94.040	3745.833
94.120	3750.000
94.200	3629.167
94.280	3808.333
94.360	4245.833
94.440	3537.500
94.520	3716.667
94.600	3812.500
94.680	3929.167
94.760	3837.500
94.840	3650.000
94.920	3604.167
95.000	3737.500
95.080	3725.000
95.160	3354.167
95.240	3729.167
95.320	3529.167
95.400	3391.667
95.480	3616.667
95.560	3591.667
95.640	3854.167
95.720	3733.333
95.800	3691.667
95.880	3550.000
95.960	3695.833
96.040	3679.167
96.120	3758.333
96.200	3745.833
96.280	3700.000
96.360	3791.667
96.440	3791.667
96.520	3562.500
96.600	3800.000
96.680	3775.000
96.760	3725.000
96.840	3591.667
96.920	3775.000
97.000	3733.333
97.080	3729.167
97.160	3637.500
97.240	3616.667
97.320	3733.333
97.400	3775.000
97.480	4045.833
97.560	3820.833
97.640	3891.667
97.720	3804.167
97.800	3691.667
97.880	3866.667
97.960	3887.500
98.040	3866.667
98.120	3854.167
98.200	3991.667
98.280	4083.333
98.360	4162.500
98.440	4012.500
98.520	4350.000
98.600	4687.500
98.680	4291.667
98.760	4175.000
98.840	4258.333
98.920	4291.667
99.000	4079.167
99.080	4354.167
99.160	4670.833
99.240	4254.167
99.320	3937.500
99.400	4058.333
99.480	4362.500
99.560	4316.667
99.640	3837.500
99.720	3945.833
99.800	3770.833
99.880	3937.500
99.960	3708.333
100.000	3708.333