File: xrd/Graphene_CuO_in_CuCl2_550.xy
5.000	1437.500
5.060	1408.333
5.120	1400.000
5.180	1495.833
5.240	1337.500
5.300	1495.833
5.360	1166.667
5.420	1370.833
5.480	1412.500
5.540	1229.167
5.600	1262.500
5.660	1304.167
5.720	1225.000
5.780	1279.167
5.840	1225.000
5.900	1162.500
5.960	1258.333
6.020	1208.333
6.080	1112.500
6.140	1225.000
6.200	1141.667
6.260	1254.167
6.320	1183.333
6.380	1141.667
6.440	1208.333
6.500	1066.667
6.560	1229.167
6.620	1116.667
6.680	1129.167
6.740	1112.500
6.800	1104.167
6.860	1158.333
6.920	1141.667
6.980	1116.667
7.040	1087.500
7.100	1166.667
7.160	1050.000
7.220	1179.167
7.280	1058.333
7.340	1145.833
7.400	1087.500
7.460	1175.000
7.520	1075.000
7.580	1079.167
7.640	1100.000
7.700	1108.333
7.760	1129.167
7.820	1208.333
7.880	1120.833
7.940	1016.667
8.000	1120.833
8.060	1033.333
8.120	1087.500
8.180	1058.333
8.240	1104.167
8.300	987.500
8.360	1125.000
8.420	987.500
8.480	1141.667
8.540	1083.333
8.600	1112.500
8.660	1129.167
8.720	1125.000
8.780	1150.000
8.840	1058.333
8.900	1062.500
8.960	1150.000
9.020	1170.833
9.080	1133.333
9.140	1125.000
9.200	1079.167
9.260	1025.000
9.320	1145.833
9.380	1191.667
9.440	1087.500
9.500	1133.333
9.560	1162.500
9.620	1154.167
9.680	1116.667
9.740	1170.833
9.800	1154.167
9.860	1133.333
9.920	1095.833
9.980	1125.000
10.040	1129.167
10.100	1100.000
10.160	1133.333
10.220	1129.167
10.280	1162.500
10.340	1154.167
10.400	1191.667
10.460	1195.833
10.520	1166.667
10.580	1100.000
10.640	1154.167
10.700	1066.667
10.760	1187.500
10.820	1200.000
10.880	1233.333
10.940	1145.833
11.000	1200.000
11.060	1125.000
11.120	1150.000
11.180	1258.333
11.240	1204.167
11.300	1145.833
11.360	1137.500
11.420	1204.167
11.480	1179.167
11.540	1087.500
11.600	1008.333
11.660	1079.167
11.720	1058.333
11.780	1100.000
11.840	1112.500
11.900	1141.667
11.960	1133.333
12.020	1191.667
12.080	1116.667
12.140	1125.000
12.200	1158.333
12.260	1116.667
12.320	1095.833
12.380	1116.667
12.440	1041.667
12.500	1054.167
12.560	1095.833
12.620	1008.333
12.680	1037.500
12.740	1062.500
12.800	1070.833
12.860	1033.333
12.920	1116.667
12.980	1045.833
13.040	1133.333
13.100	1029.167
13.160	1075.000
13.220	1000.000
13.280	1004.167
13.340	975.000
13.400	991.667
13.460	1025.000
13.520	1037.500
13.580	979.167
13.640	1037.500
13.700	1058.333
13.760	1008.333
13.820	954.167
13.880	1066.667
13.940	1020.833
14.000	1000.000
14.060	941.667
14.120	954.167
14.180	904.167
14.240	1000.000
14.300	912.500
14.360	979.167
14.420	1025.000
14.480	966.667
14.540	979.167
14.600	933.333
14.660	1029.167
14.720	908.333
14.780	895.833
14.840	1033.333
14.900	945.833
14.960	1004.167
15.020	929.167
15.080	945.833
15.140	1033.333
15.200	933.333
15.260	970.833
15.320	945.833
15.380	979.167
15.440	945.833
15.500	1029.167
15.560	925.000
15.620	912.500
15.680	916.667
15.740	970.833
15.800	945.833
15.860	883.333
15.920	995.833
15.980	870.833
16.040	916.667
16.100	891.667
16.160	954.167
16.220	900.000
16.280	854.167
16.340	983.333
16.400	929.167
16.460	833.333
16.520	925.000
16.580	866.667
16.640	979.167
16.700	870.833
16.760	883.333
16.820	887.500
16.880	962.500
16.940	941.667
17.000	929.167
17.060	925.000
17.120	904.167
17.180	945.833
17.240	900.000
17.300	916.667
17.360	958.333
17.420	895.833
17.480	916.667
17.540	850.000
17.600	858.333
17.660	862.500
17.720	787.500
17.780	966.667
17.840	900.000
17.900	900.000
17.960	900.000
18.020	875.000
18.080	804.167
18.140	829.167
18.200	950.000
18.260	825.000
18.320	887.500
18.380	929.167
18.440	870.833
18.500	841.667
18.560	825.000
18.620	879.167
18.680	854.167
18.740	870.833
18.800	891.667
18.860	795.833
18.920	891.667
18.980	962.500
19.040	995.833
19.100	1050.000
19.160	929.167
19.220	891.667
19.280	787.500
19.340	787.500
19.400	745.833
19.460	812.500
19.520	820.833
19.580	887.500
19.640	875.000
19.700	808.333
19.760	833.333
19.820	862.500
19.880	904.167
19.940	804.167
20.000	879.167
20.060	854.167
20.120	816.667
20.180	870.833
20.240	850.000
20.300	800.000
20.360	850.000
20.420	866.667
20.480	800.000
20.540	787.500
20.600	787.500
20.660	775.000
20.720	825.000
20.780	854.167
20.840	762.500
20.900	858.333
20.960	808.333
21.020	670.833
21.080	750.000
21.140	800.000
21.200	795.833
21.260	808.333
21.320	758.333
21.380	808.333
21.440	770.833
21.500	750.000
21.560	766.667
21.620	762.500
21.680	779.167
21.740	858.333
21.800	816.667
21.860	812.500
21.920	791.667
21.980	800.000
22.040	800.000
22.100	779.167
22.160	816.667
22.220	816.667
22.280	829.167
22.340	866.667
22.400	787.500
22.460	775.000
22.520	725.000
22.580	808.333
22.640	779.167
22.700	729.167
22.760	820.833
22.820	766.667
22.880	825.000
22.940	733.333
23.000	729.167
23.060	829.167
23.120	725.000
23.180	758.333
23.240	766.667
23.300	845.833
23.360	787.500
23.420	829.167
23.480	770.833
23.540	800.000
23.600	837.500
23.660	833.333
23.720	891.667
23.780	883.333
23.840	812.500
23.900	795.833
23.960	879.167
24.020	829.167
24.080	841.667
24.140	850.000
24.200	804.167
24.260	808.333
24.320	800.000
24.380	762.500
24.440	766.667
24.500	745.833
24.560	683.333
24.620	729.167
24.680	770.833
24.740	745.833
24.800	812.500
24.860	716.667
24.920	775.000
24.980	758.333
25.040	695.833
25.100	770.833
25.160	766.667
25.220	745.833
25.280	766.667
25.340	687.500
25.400	787.500
25.460	775.000
25.520	754.167
25.580	775.000
25.640	808.333
25.700	804.167
25.760	837.500
25.820	854.167
25.880	779.167
25.940	804.167
26.000	720.833
26.060	704.167
26.120	808.333
26.180	762.500
26.240	675.000
26.300	662.500
26.360	729.167
26.420	695.833
26.480	716.667
26.540	720.833
26.600	741.667
26.660	754.167
26.720	816.667
26.780	804.167
26.840	691.667
26.900	795.833
26.960	820.833
27.020	762.500
27.080	770.833
27.140	758.333
27.200	812.500
27.260	825.000
27.320	850.000
27.380	866.667
27.440	804.167
27.500	775.000
27.560	795.833
27.620	775.000
27.680	708.333
27.740	795.833
27.800	733.333
27.860	716.667
27.920	675.000
27.980	745.833
28.040	787.500
28.100	687.500
28.160	720.833
28.220	745.833
28.280	800.000
28.340	787.500
28.400	879.167
28.460	854.167
28.520	845.833
28.580	808.333
28.640	866.667
28.700	858.333
28.760	970.833
28.820	812.500
28.880	908.333
28.940	895.833
29.000	875.000
29.060	850.000
29.120	904.167
29.180	870.833
29.240	920.833
29.300	820.833
29.360	900.000
29.420	916.667
29.480	875.000
29.540	858.333
29.600	904.167
29.660	829.167
29.720	829.167
29.780	845.833
29.840	779.167
29.900	900.000
29.960	800.000
30.020	854.167
30.080	850.000
30.140	866.667
30.200	1041.667
30.260	1033.333
30.320	1045.833
30.380	1020.833
30.440	1037.500
30.500	920.833
30.560	925.000
30.620	1070.833
30.680	1087.500
30.740	1216.667
30.800	1312.500
30.860	1491.667
30.920	1504.167
30.980	1516.667
31.040	1562.500
31.100	1670.833
31.160	1691.667
31.220	1945.833
31.280	2279.167
31.340	2612.500
31.400	3108.333
31.460	3700.000
31.520	4625.000
31.580	7375.000
31.640	14320.833
31.700	35516.667
31.760	78929.167
31.820	104816.667
31.880	76654.167
31.940	37620.833
32.000	13208.333
32.060	6429.167
32.120	4229.167
32.180	3270.833
32.240	2354.167
32.300	2216.667
32.360	1725.000
32.420	1604.167
32.480	1554.167
32.540	1541.667
32.600	1454.167
32.660	1504.167
32.720	1329.167
32.780	1229.167
32.840	1341.667
32.900	1154.167
32.960	1204.167
33.020	1150.000
33.080	1158.333
33.140	1287.500
33.200	1154.167
33.260	1379.167
33.320	1404.167
33.380	1475.000
33.440	1437.500
33.500	1375.000
33.560	1387.500
33.620	1533.333
33.680	1454.167
33.740	1454.167
33.800	1679.167
33.860	1766.667
33.920	1829.167
33.980	2079.167
34.040	2229.167
34.100	2545.833
34.160	3287.500
34.220	4391.667
34.280	8050.000
34.340	18450.000
34.400	45141.667
34.460	72829.167
34.520	63625.000
34.580	36904.167
34.640	14795.833
34.700	6391.667
34.760	3758.333
34.820	2991.667
34.880	2429.167
34.940	2137.500
35.000	2062.500
35.060	2187.500
35.120	2179.167
35.180	2216.667
35.240	2062.500
35.300	2050.000
35.360	2137.500
35.420	2400.000
35.480	2675.000
35.540	3250.000
35.600	3450.000
35.660	3333.333
35.720	3558.333
35.780	3679.167
35.840	4200.000
35.900	5025.000
35.960	6212.500
36.020	8195.833
36.080	13979.167
36.140	29737.500
36.200	71987.500
36.260	143050.000
36.320	165387.500
36.380	116466.667
36.440	60566.667
36.500	23550.000
36.560	11350.000
36.620	7179.167
36.680	5045.833
36.740	3941.667
36.800	3054.167
36.860	2766.667
36.920	2379.167
36.980	2270.833
37.040	1941.667
37.100	1933.333
37.160	1870.833
37.220	2012.500
37.280	1795.833
37.340	1654.167
37.400	1579.167
37.460	1504.167
37.520	1475.000
37.580	1425.000
37.640	1491.667
37.700	1345.833
37.760	1354.167
37.820	1279.167
37.880	1350.000
37.940	1266.667
38.000	1229.167
38.060	1329.167
38.120	1337.500
38.180	1241.667
38.240	1145.833
38.300	1250.000
38.360	1250.000
38.420	1158.333
38.480	1300.000
38.540	1358.333
38.600	1525.000
38.660	1850.000
38.720	2208.333
38.780	2070.833
38.840	1812.500
38.900	1475.000
38.960	1404.167
39.020	1316.667
39.080	1300.000
39.140	1195.833
39.200	1120.833
39.260	1012.500
39.320	1058.333
39.380	1050.000
39.440	1045.833
39.500	945.833
39.560	1012.500
39.620	945.833
39.680	975.000
39.740	1033.333
39.800	908.333
39.860	1008.333
39.920	970.833
39.980	979.167
40.040	1020.833
40.100	975.000
40.160	883.333
40.220	895.833
40.280	941.667
40.340	929.167
40.400	887.500
40.460	945.833
40.520	945.833
40.580	904.167
40.640	887.500
40.700	904.167
40.760	875.000
40.820	841.667
40.880	866.667
40.940	883.333
41.000	900.000
41.060	925.000
41.120	895.833
41.180	850.000
41.240	912.500
41.300	841.667
41.360	866.667
41.420	845.833
41.480	783.333
41.540	850.000
41.600	804.167
41.660	875.000
41.720	800.000
41.780	808.333
41.840	750.000
41.900	833.333
41.960	737.500
42.020	725.000
42.080	720.833
42.140	754.167
42.200	733.333
42.260	745.833
42.320	800.000
42.380	733.333
42.440	775.000
42.500	758.333
42.560	725.000
42.620	766.667
42.680	804.167
42.740	720.833
42.800	766.667
42.860	762.500
42.920	787.500
42.980	791.667
43.040	733.333
43.100	829.167
43.160	1037.500
43.220	950.000
43.280	1112.500
43.340	941.667
43.400	808.333
43.460	754.167
43.520	770.833
43.580	720.833
43.640	741.667
43.700	687.500
43.760	683.333
43.820	770.833
43.880	708.333
43.940	737.500
44.000	700.000
44.060	708.333
44.120	662.500
44.180	720.833
44.240	695.833
44.300	675.000
44.360	662.500
44.420	704.167
44.480	695.833
44.540	662.500
44.600	750.000
44.660	708.333
44.720	695.833
44.780	675.000
44.840	695.833
44.900	779.167
44.960	741.667
45.020	750.000
45.080	837.500
45.140	845.833
45.200	762.500
45.260	808.333
45.320	758.333
45.380	725.000
45.440	716.667
45.500	654.167
45.560	650.000
45.620	662.500
45.680	591.667
45.740	720.833
45.800	745.833
45.860	716.667
45.920	716.667
45.980	754.167
46.040	741.667
46.100	745.833
46.160	750.000
46.220	858.333
46.280	775.000
46.340	854.167
46.400	695.833
46.460	783.333
46.520	929.167
46.580	837.500
46.640	770.833
46.700	787.500
46.760	908.333
46.820	875.000
46.880	975.000
46.940	933.333
47.000	1041.667
47.060	1254.167
47.120	1391.667
47.180	1562.500
47.240	1900.000
47.300	2587.500
47.360	3783.333
47.420	6833.333
47.480	15054.167
47.540	27570.833
47.600	32741.667
47.660	25562.500
47.720	19354.167
47.780	10079.167
47.840	4850.000
47.900	2929.167
47.960	2020.833
48.020	1500.000
48.080	1320.833
48.140	1062.500
48.200	1008.333
48.260	995.833
48.320	970.833
48.380	941.667
48.440	812.500
48.500	770.833
48.560	862.500
48.620	804.167
48.680	887.500
48.740	908.333
48.800	920.833
48.860	945.833
48.920	1008.333
48.980	891.667
49.040	770.833
49.100	750.000
49.160	750.000
49.220	783.333
49.280	741.667
49.340	750.000
49.400	733.333
49.460	745.833
49.520	608.333
49.580	704.167
49.640	687.500
49.700	670.833
49.760	720.833
49.820	658.333
49.880	670.833
49.940	720.833
50.000	695.833
50.060	750.000
50.120	679.167
50.180	658.333
50.240	670.833
50.300	637.500
50.360	704.167
50.420	670.833
50.480	658.333
50.540	754.167
50.600	679.167
50.660	700.000
50.720	645.833
50.780	712.500
50.840	687.500
50.900	712.500
50.960	720.833
51.020	658.333
51.080	691.667
51.140	637.500
51.200	687.500
51.260	616.667
51.320	712.500
51.380	650.000
51.440	604.167
51.500	658.333
51.560	683.333
51.620	633.333
51.680	708.333
51.740	666.667
51.800	662.500
51.860	633.333
51.920	645.833
51.980	662.500
52.040	679.167
52.100	683.333
52.160	629.167
52.220	662.500
52.280	650.000
52.340	583.333
52.400	645.833
52.460	720.833
52.520	641.667
52.580	608.333
52.640	608.333
52.700	712.500
52.760	687.500
52.820	641.667
52.880	687.500
52.940	716.667
53.000	691.667
53.060	766.667
53.120	691.667
53.180	737.500
53.240	650.000
53.300	691.667
53.360	679.167
53.420	737.500
53.480	770.833
53.540	829.167
53.600	783.333
53.660	650.000
53.720	720.833
53.780	695.833
53.840	670.833
53.900	662.500
53.960	670.833
54.020	708.333
54.080	687.500
54.140	620.833
54.200	641.667
54.260	683.333
54.320	654.167
54.380	637.500
54.440	712.500
54.500	687.500
54.560	825.000
54.620	766.667
54.680	862.500
54.740	862.500
54.800	783.333
54.860	850.000
54.920	845.833
54.980	783.333
55.040	904.167
55.100	925.000
55.160	783.333
55.220	854.167
55.280	916.667
55.340	912.500
55.400	916.667
55.460	904.167
55.520	933.333
55.580	950.000
55.640	933.333
55.700	991.667
55.760	1000.000
55.820	1033.333
55.880	1112.500
55.940	1087.500
56.000	1358.333
56.060	1541.667
56.120	1662.500
56.180	1945.833
56.240	2441.667
56.300	3316.667
56.360	4450.000
56.420	6804.167
56.480	12883.333
56.540	26550.000
56.600	42770.833
56.660	42975.000
56.720	33458.333
56.780	27808.333
56.840	17479.167
56.900	8362.500
56.960	4675.000
57.020	3037.500
57.080	2258.333
57.140	1787.500
57.200	1545.833
57.260	1379.167
57.320	1200.000
57.380	1150.000
57.440	1087.500
57.500	1008.333
57.560	1045.833
57.620	991.667
57.680	941.667
57.740	875.000
57.800	887.500
57.860	958.333
57.920	895.833
57.980	900.000
58.040	837.500
58.100	795.833
58.160	866.667
58.220	929.167
58.280	858.333
58.340	845.833
58.400	945.833
58.460	875.000
58.520	854.167
58.580	804.167
58.640	845.833
58.700	750.000
58.760	787.500
58.820	841.667
58.880	754.167
58.940	766.667
59.000	779.167
59.060	762.500
59.120	741.667
59.180	854.167
59.240	729.167
59.300	737.500
59.360	766.667
59.420	804.167
59.480	766.667
59.540	683.333
59.600	791.667
59.660	795.833
59.720	720.833
59.780	833.333
59.840	745.833
59.900	729.167
59.960	737.500
60.020	679.167
60.080	783.333
60.140	770.833
60.200	770.833
60.260	883.333
60.320	800.000
60.380	812.500
60.440	791.667
60.500	908.333
60.560	795.833
60.620	841.667
60.680	870.833
60.740	837.500
60.800	841.667
60.860	916.667
60.920	883.333
60.980	883.333
61.040	816.667
61.100	920.833
61.160	866.667
61.220	908.333
61.280	933.333
61.340	937.500
61.400	958.333
61.460	937.500
61.520	1058.333
61.580	1137.500
61.640	1008.333
61.700	1108.333
61.760	987.500
61.820	1012.500
61.880	1050.000
61.940	950.000
62.000	1029.167
62.060	1041.667
62.120	1095.833
62.180	1112.500
62.240	1329.167
62.300	1429.167
62.360	1608.333
62.420	1866.667
62.480	2291.667
62.540	2908.333
62.600	4020.833
62.660	5770.833
62.720	9962.500
62.780	18358.333
62.840	32254.167
62.900	36791.667
62.960	28700.000
63.020	24604.167
63.080	20712.500
63.140	12562.500
63.200	6537.500
63.260	4062.500
63.320	2716.667
63.380	2179.167
63.440	1795.833
63.500	1483.333
63.560	1354.167
63.620	1220.833
63.680	1129.167
63.740	1129.167
63.800	1008.333
63.860	1079.167
63.920	995.833
63.980	1029.167
64.040	900.000
64.100	983.333
64.160	933.333
64.220	883.333
64.280	983.333
64.340	966.667
64.400	1037.500
64.460	866.667
64.520	879.167
64.580	841.667
64.640	870.833
64.700	929.167
64.760	875.000
64.820	820.833
64.880	766.667
64.940	866.667
65.000	787.500
65.060	854.167
65.120	904.167
65.180	887.500
65.240	916.667
65.300	895.833
65.360	875.000
65.420	883.333
65.480	979.167
65.540	958.333
65.600	958.333
65.660	983.333
65.720	1041.667
65.780	1033.333
65.840	1062.500
65.900	1279.167
65.960	1208.333
66.020	1350.000
66.080	1441.667
66.140	1570.833
66.200	2075.000
66.260	2870.833
66.320	4966.667
66.380	6204.167
66.440	5987.500
66.500	4883.333
66.560	4491.667
66.620	3720.833
66.680	2412.500
66.740	1758.333
66.800	1437.500
66.860	1204.167
66.920	1279.167
66.980	1100.000
67.040	1062.500
67.100	1216.667
67.160	1116.667
67.220	1212.500
67.280	1204.167
67.340	1391.667
67.400	1583.333
67.460	1725.000
67.520	2041.667
67.580	2516.667
67.640	3025.000
67.700	4020.833
67.760	6245.833
67.820	10487.500
67.880	19200.000
67.940	27870.833
68.000	27620.833
68.060	21645.833
68.120	19470.833
68.180	16433.333
68.240	10804.167
68.300	6212.500
68.360	4004.167
68.420	2720.833
68.480	2283.333
68.540	1995.833
68.600	1845.833
68.660	1783.333
68.720	1937.500
68.780	2129.167
68.840	2737.500
68.900	3637.500
68.960	6033.333
69.020	10158.333
69.080	14345.833
69.140	13808.333
69.200	10733.333
69.260	10220.833
69.320	8558.333
69.380	5870.833
69.440	3508.333
69.500	2287.500
69.560	1708.333
69.620	1404.167
69.680	1237.500
69.740	1175.000
69.800	1070.833
69.860	975.000
69.920	950.000
69.980	866.667
70.040	895.833
70.100	887.500
70.160	845.833
70.220	866.667
70.280	791.667
70.340	820.833
70.400	862.500
70.460	837.500
70.520	750.000
70.580	912.500
70.640	916.667
70.700	770.833
70.760	787.500
70.820	712.500
70.880	762.500
70.940	795.833
71.000	750.000
71.060	745.833
71.120	662.500
71.180	737.500
71.240	750.000
71.300	783.333
71.360	658.333
71.420	683.333
71.480	683.333
71.540	754.167
71.600	679.167
71.660	712.500
71.720	779.167
71.780	729.167
71.840	675.000
71.900	758.333
71.960	770.833
72.020	762.500
72.080	708.333
72.140	825.000
72.200	841.667
72.260	858.333
72.320	950.000
72.380	1104.167
72.440	1433.333
72.500	1979.167
72.560	2875.000
72.620	2800.000
72.680	2237.500
72.740	2054.167
72.800	1945.833
72.860	1491.667
72.920	1129.167
72.980	900.000
73.040	820.833
73.100	725.000
73.160	737.500
73.220	725.000
73.280	708.333
73.340	666.667
73.400	650.000
73.460	666.667
73.520	691.667
73.580	750.000
73.640	620.833
73.700	658.333
73.760	629.167
73.820	741.667
73.880	591.667
73.940	704.167
74.000	608.333
74.060	675.000
74.120	687.500
74.180	604.167
74.240	683.333
74.300	675.000
74.360	675.000
74.420	687.500
74.480	729.167
74.540	675.000
74.600	629.167
74.660	654.167
74.720	675.000
74.780	633.333
74.840	666.667
74.900	737.500
74.960	712.500
75.020	770.833
75.080	691.667
75.140	737.500
75.200	691.667
75.260	750.000
75.320	762.500
75.380	695.833
75.440	645.833
75.500	679.167
75.560	620.833
75.620	675.000
75.680	633.333
75.740	637.500
75.800	645.833
75.860	604.167
75.920	608.333
75.980	679.167
76.040	595.833
76.100	637.500
76.160	641.667
76.220	658.333
76.280	691.667
76.340	729.167
76.400	725.000
76.460	754.167
76.520	866.667
76.580	854.167
76.640	979.167
76.700	1237.500
76.760	1470.833
76.820	2120.833
76.880	3158.333
76.940	4525.000
77.000	4791.667
77.060	3745.833
77.120	3216.667
77.180	2962.500
77.240	2741.667
77.300	1920.833
77.360	1279.167
77.420	970.833
77.480	779.167
77.540	858.333
77.600	654.167
77.660	633.333
77.720	695.833
77.780	658.333
77.840	604.167
77.900	650.000
77.960	516.667
78.020	583.333
78.080	554.167
78.140	629.167
78.200	650.000
78.260	612.500
78.320	545.833
78.380	625.000
78.440	633.333
78.500	525.000
78.560	545.833
78.620	629.167
78.680	587.500
78.740	620.833
78.800	608.333
78.860	554.167
78.920	525.000
78.980	633.333
79.040	583.333
79.100	616.667
79.160	612.500
79.220	633.333
79.280	575.000
79.340	612.500
79.400	537.500
79.460	629.167
79.520	625.000
79.580	608.333
79.640	604.167
79.700	575.000
79.760	612.500
79.820	545.833
79.880	558.333
79.940	545.833
80.000	550.000
80.060	583.333
80.120	554.167
80.180	604.167
80.240	562.500
80.300	600.000
80.360	529.167
80.420	541.667
80.480	575.000
80.540	612.500
80.600	591.667
80.660	575.000
80.720	583.333
80.780	625.000
80.840	629.167
80.900	654.167
80.960	704.167
81.020	700.000
81.080	812.500
81.140	991.667
81.200	1029.167
81.260	1370.833
81.320	1916.667
81.380	2441.667
81.440	2466.667
81.500	1954.167
81.560	1800.000
81.620	1770.833
81.680	1595.833
81.740	1270.833
81.800	950.000
81.860	820.833
81.920	762.500
81.980	641.667
82.040	566.667
82.100	641.667
82.160	645.833
82.220	575.000
82.280	608.333
82.340	616.667
82.400	625.000
82.460	608.333
82.520	550.000
82.580	654.167
82.640	512.500
82.700	637.500
82.760	562.500
82.820	570.833
82.880	620.833
82.940	600.000
83.000	591.667
83.060	583.333
83.120	587.500
83.180	570.833
83.240	566.667
83.300	633.333
83.360	587.500
83.420	520.833
83.480	550.000
83.540	616.667
83.600	633.333
83.660	600.000
83.720	495.833
83.780	595.833
83.840	637.500
83.900	629.167
83.960	604.167
84.020	558.333
84.080	587.500
84.140	575.000
84.200	558.333
84.260	604.167
84.320	562.500
84.380	562.500
84.440	541.667
84.500	533.333
84.560	554.167
84.620	587.500
84.680	516.667
84.740	504.167
84.800	450.000
84.860	533.333
84.920	600.000
84.980	558.333
85.040	512.500
85.100	512.500
85.160	554.167
85.220	550.000
85.280	458.333
85.340	525.000
85.400	583.333
85.460	541.667
85.520	575.000
85.580	579.167
85.640	500.000
85.700	558.333
85.760	562.500
85.820	600.000
85.880	591.667
85.940	658.333
86.000	529.167
86.060	587.500
86.120	541.667
86.180	495.833
86.240	550.000
86.300	545.833
86.360	508.333
86.420	458.333
86.480	525.000
86.540	558.333
86.600	575.000
86.660	508.333
86.720	583.333
86.780	558.333
86.840	591.667
86.900	625.000
86.960	616.667
87.020	537.500
87.080	491.667
87.140	541.667
87.200	566.667
87.260	529.167
87.320	625.000
87.380	620.833
87.440	637.500
87.500	583.333
87.560	550.000
87.620	554.167
87.680	654.167
87.740	558.333
87.800	541.667
87.860	575.000
87.920	545.833
87.980	604.167
88.040	575.000
88.100	550.000
88.160	512.500
88.220	591.667
88.280	633.333
88.340	575.000
88.400	545.833
88.460	591.667
88.520	612.500
88.580	666.667
88.640	754.167
88.700	704.167
88.760	683.333
88.820	741.667
88.880	729.167
88.940	833.333
89.000	825.000
89.060	991.667
89.120	975.000
89.180	1250.000
89.240	1266.667
89.300	1595.833
89.360	2145.833
89.420	3045.833
89.480	4541.667
89.540	6404.167
89.600	8008.333
89.660	7912.500
89.720	6291.667
89.780	4987.500
89.840	5250.000
89.900	5154.167
89.960	5079.167
90.000	5079.167