File: xrd/Graphene_ZnO_in_CuCl2.xy
5.000	2025.000
5.060	1865.000
5.120	1950.000
5.180	1795.000
5.240	1935.000
5.300	1760.000
5.360	1715.000
5.420	1850.000
5.480	1745.000
5.540	1645.000
5.600	1640.000
5.660	1615.000
5.720	1720.000
5.780	1625.000
5.840	1565.000
5.900	1505.000
5.960	1400.000
6.020	1615.000
6.080	1650.000
6.140	1485.000
6.200	1515.000
6.260	1370.000
6.320	1470.000
6.380	1575.000
6.440	1310.000
6.500	1430.000
6.560	1475.000
6.620	1305.000
6.680	1335.000
6.740	1455.000
6.800	1455.000
6.860	1455.000
6.920	1465.000
6.980	1325.000
7.040	1345.000
7.100	1310.000
7.160	1390.000
7.220	1350.000
7.280	1420.000
7.340	1355.000
7.400	1350.000
7.460	1190.000
7.520	1310.000
7.580	1325.000
7.640	1290.000
7.700	1430.000
7.760	1305.000
7.820	1390.000
7.880	1380.000
7.940	1325.000
8.000	1345.000
8.060	1320.000
8.120	1340.000
8.180	1250.000
8.240	1350.000
8.300	1310.000
8.360	1225.000
8.420	1320.000
8.480	1370.000
8.540	1245.000
8.600	1335.000
8.660	1360.000
8.720	1235.000
8.780	1145.000
8.840	1295.000
8.900	1280.000
8.960	1295.000
9.020	1270.000
9.080	1185.000
9.140	1350.000
9.200	1235.000
9.260	1335.000
9.320	1315.000
9.380	1315.000
9.440	1330.000
9.500	1190.000
9.560	1370.000
9.620	1245.000
9.680	1375.000
9.740	1330.000
9.800	1370.000
9.860	1300.000
9.920	1330.000
9.980	1240.000
10.040	1330.000
10.100	1370.000
10.160	1435.000
10.220	1370.000
10.280	1435.000
10.340	1510.000
10.400	1560.000
10.460	1665.000
10.520	1600.000
10.580	1830.000
10.640	2180.000
10.700	2635.000
10.760	3985.000
10.820	5045.000
10.880	6090.000
10.940	9210.000
11.000	23010.000
11.060	82775.000
11.120	254805.000
11.180	175665.000
11.240	28765.000
11.300	9595.000
11.360	6085.000
11.420	4885.000
11.480	4090.000
11.540	3490.000
11.600	3055.000
11.660	2720.000
11.720	2675.000
11.780	2295.000
11.840	2410.000
11.900	2120.000
11.960	2295.000
12.020	2285.000
12.080	2210.000
12.140	2025.000
12.200	1905.000
12.260	1850.000
12.320	1840.000
12.380	1800.000
12.440	1780.000
12.500	1855.000
12.560	1700.000
12.620	1855.000
12.680	1760.000
12.740	1700.000
12.800	1710.000
12.860	1650.000
12.920	1725.000
12.980	1630.000
13.040	1655.000
13.100	1610.000
13.160	1585.000
13.220	1520.000
13.280	1445.000
13.340	1495.000
13.400	1380.000
13.460	1470.000
13.520	1440.000
13.580	1415.000
13.640	1300.000
13.700	1405.000
13.760	1315.000
13.820	1425.000
13.880	1375.000
13.940	1370.000
14.000	1395.000
14.060	1325.000
14.120	1300.000
14.180	1330.000
14.240	1255.000
14.300	1340.000
14.360	1360.000
14.420	1330.000
14.480	1430.000
14.540	1320.000
14.600	1305.000
14.660	1390.000
14.720	1390.000
14.780	1530.000
14.840	1540.000
14.900	1685.000
14.960	1940.000
15.020	2195.000
15.080	2455.000
15.140	2880.000
15.200	3485.000
15.260	4465.000
15.320	6495.000
15.380	11910.000
15.440	24445.000
15.500	39550.000
15.560	35275.000
15.620	18520.000
15.680	8915.000
15.740	5250.000
15.800	3790.000
15.860	3060.000
15.920	2760.000
15.980	2610.000
16.040	2430.000
16.100	2255.000
16.160	1925.000
16.220	1850.000
16.280	1930.000
16.340	2200.000
16.400	4125.000
16.460	8785.000
16.520	7670.000
16.580	2850.000
16.640	1810.000
16.700	1515.000
16.760	1445.000
16.820	1385.000
16.880	1265.000
16.940	1345.000
17.000	1320.000
17.060	1205.000
17.120	1225.000
17.180	1255.000
17.240	1160.000
17.300	1230.000
17.360	1220.000
17.420	1195.000
17.480	1175.000
17.540	1210.000
17.600	1270.000
17.660	1445.000
17.720	1815.000
17.780	1425.000
17.840	1270.000
17.900	1115.000
17.960	1060.000
18.020	1095.000
18.080	1130.000
18.140	1130.000
18.200	1090.000
18.260	1090.000
18.320	1090.000
18.380	1140.000
18.440	1040.000
18.500	1100.000
18.560	1040.000
18.620	975.000
18.680	1015.000
18.740	1020.000
18.800	1080.000
18.860	990.000
18.920	1040.000
18.980	1000.000
19.040	970.000
19.100	970.000
19.160	990.000
19.220	1135.000
19.280	1045.000
19.340	1085.000
19.400	950.000
19.460	1090.000
19.520	905.000
19.580	960.000
19.640	995.000
19.700	1005.000
19.760	1055.000
19.820	975.000
19.880	1050.000
19.940	955.000
20.000	970.000
20.060	1045.000
20.120	1055.000
20.180	1075.000
20.240	1060.000
20.300	1090.000
20.360	1080.000
20.420	1160.000
20.480	1135.000
20.540	1225.000
20.600	1105.000
20.660	1065.000
20.720	1080.000
20.780	1145.000
20.840	1190.000
20.900	1070.000
20.960	1055.000
21.020	1065.000
21.080	985.000
21.140	1010.000
21.200	1035.000
21.260	1165.000
21.320	1100.000
21.380	1150.000
21.440	1140.000
21.500	1270.000
21.560	1260.000
21.620	1320.000
21.680	1490.000
21.740	1565.000
21.800	2085.000
21.860	3025.000
21.920	7665.000
21.980	17430.000
22.040	14890.000
22.100	5955.000
22.160	2875.000
22.220	2295.000
22.280	2265.000
22.340	3840.000
22.400	11500.000
22.460	28570.000
22.520	18585.000
22.580	4740.000
22.640	2100.000
22.700	1595.000
22.760	1425.000
22.820	1390.000
22.880	1315.000
22.940	1235.000
23.000	1125.000
23.060	1190.000
23.120	1190.000
23.180	1085.000
23.240	1180.000
23.300	1115.000
23.360	1040.000
23.420	1115.000
23.480	1055.000
23.540	1075.000
23.600	1115.000
23.660	1105.000
23.720	1120.000
23.780	1100.000
23.840	1075.000
23.900	1210.000
23.960	1175.000
24.020	1265.000
24.080	1240.000
24.140	1250.000
24.200	1280.000
24.260	1305.000
24.320	1470.000
24.380	1520.000
24.440	1630.000
24.500	1680.000
24.560	2285.000
24.620	4325.000
24.680	11460.000
24.740	24230.000
24.800	17600.000
24.860	6655.000
24.920	2810.000
24.980	2095.000
25.040	1830.000
25.100	1635.000
25.160	1535.000
25.220	1460.000
25.280	1550.000
25.340	1505.000
25.400	1620.000
25.460	1560.000
25.520	1760.000
25.580	1845.000
25.640	1995.000
25.700	2115.000
25.760	2265.000
25.820	2310.000
25.880	2605.000
25.940	3030.000
26.000	3380.000
26.060	3990.000
26.120	5025.000
26.180	6310.000
26.240	8290.000
26.300	11895.000
26.360	17735.000
26.420	28445.000
26.480	31875.000
26.540	22450.000
26.600	12035.000
26.660	7505.000
26.720	5385.000
26.780	4190.000
26.840	3350.000
26.900	2760.000
26.960	2315.000
27.020	2190.000
27.080	1950.000
27.140	1930.000
27.200	1740.000
27.260	1625.000
27.320	1510.000
27.380	1635.000
27.440	1410.000
27.500	1535.000
27.560	1610.000
27.620	1475.000
27.680	1495.000
27.740	1410.000
27.800	1650.000
27.860	1865.000
27.920	3160.000
27.980	7410.000
28.040	14535.000
28.100	10745.000
28.160	5270.000
28.220	2220.000
28.280	1745.000
28.340	1520.000
28.400	1355.000
28.460	1255.000
28.520	1300.000
28.580	1265.000
28.640	1150.000
28.700	1240.000
28.760	1200.000
28.820	1080.000
28.880	1235.000
28.940	1105.000
29.000	1195.000
29.060	1265.000
29.120	1180.000
29.180	1280.000
29.240	1360.000
29.300	1305.000
29.360	1270.000
29.420	1320.000
29.480	1270.000
29.540	1280.000
29.600	1290.000
29.660	1185.000
29.720	1270.000
29.780	1235.000
29.840	1405.000
29.900	1485.000
29.960	1560.000
30.020	1780.000
30.080	1965.000
30.140	2940.000
30.200	6040.000
30.260	13080.000
30.320	13520.000
30.380	8980.000
30.440	4165.000
30.500	2890.000
30.560	2525.000
30.620	2485.000
30.680	2620.000
30.740	3035.000
30.800	3955.000
30.860	7590.000
30.920	18115.000
30.980	34670.000
31.040	24590.000
31.100	12590.000
31.160	5385.000
31.220	3915.000
31.280	3245.000
31.340	3480.000
31.400	3555.000
31.460	3180.000
31.520	3175.000
31.580	2975.000
31.640	4360.000
31.700	5380.000
31.760	4255.000
31.820	3180.000
31.880	2530.000
31.940	2495.000
32.000	2720.000
32.060	2840.000
32.120	3005.000
32.180	3450.000
32.240	3620.000
32.300	3690.000
32.360	3560.000
32.420	3425.000
32.480	3430.000
32.540	3815.000
32.600	4850.000
32.660	9710.000
32.720	20725.000
32.780	18015.000
32.840	12215.000
32.900	5650.000
32.960	4205.000
33.020	3620.000
33.080	3235.000
33.140	3195.000
33.200	3905.000
33.260	5215.000
33.320	10700.000
33.380	24225.000
33.440	23530.000
33.500	16360.000
33.560	6870.000
33.620	3795.000
33.680	3105.000
33.740	2830.000
33.800	2850.000
33.860	2795.000
33.920	3335.000
33.980	5760.000
34.040	7500.000
34.100	5915.000
34.160	5325.000
34.220	6990.000
34.280	15625.000
34.340	32900.000
34.400	25540.000
34.460	17305.000
34.520	6815.000
34.580	3965.000
34.640	3100.000
34.700	2720.000
34.760	2590.000
34.820	2415.000
34.880	2495.000
34.940	2340.000
35.000	2200.000
35.060	2140.000
35.120	2080.000
35.180	2120.000
35.240	1795.000
35.300	1900.000
35.360	1905.000
35.420	1670.000
35.480	1805.000
35.540	1795.000
35.600	1640.000
35.660	1795.000
35.720	1865.000
35.780	2260.000
35.840	2560.000
35.900	2815.000
35.960	2645.000
36.020	2995.000
36.080	4055.000
36.140	7070.000
36.200	9555.000
36.260	10800.000
36.320	7210.000
36.380	4930.000
36.440	2730.000
36.500	1950.000
36.560	1695.000
36.620	1680.000
36.680	1510.000
36.740	1380.000
36.800	1380.000
36.860	1345.000
36.920	1380.000
36.980	1345.000
37.040	1370.000
37.100	1390.000
37.160	1360.000
37.220	1410.000
37.280	1560.000
37.340	1555.000
37.400	1620.000
37.460	1705.000
37.520	1980.000
37.580	2430.000
37.640	3715.000
37.700	7370.000
37.760	16360.000
37.820	16025.000
37.880	11825.000
37.940	5730.000
38.000	2930.000
38.060	1880.000
38.120	1615.000
38.180	1420.000
38.240	1325.000
38.300	1190.000
38.360	1180.000
38.420	1105.000
38.480	1160.000
38.540	1090.000
38.600	1075.000
38.660	1115.000
38.720	1100.000
38.780	1190.000
38.840	1155.000
38.900	1075.000
38.960	1255.000
39.020	1240.000
39.080	1250.000
39.140	1285.000
39.200	1315.000
39.260	1215.000
39.320	1335.000
39.380	1270.000
39.440	1345.000
39.500	1230.000
39.560	1375.000
39.620	1305.000
39.680	1280.000
39.740	1295.000
39.800	1290.000
39.860	1295.000
39.920	1275.000
39.980	1315.000
40.040	1285.000
40.100	1385.000
40.160	1325.000
40.220	1450.000
40.280	1425.000
40.340	1430.000
40.400	1515.000
40.460	1540.000
40.520	1605.000
40.580	1520.000
40.640	1555.000
40.700	1545.000
40.760	1620.000
40.820	1670.000
40.880	1735.000
40.940	1780.000
41.000	1685.000
41.060	1740.000
41.120	1655.000
41.180	1685.000
41.240	1720.000
41.300	1995.000
41.360	2550.000
41.420	4690.000
41.480	6960.000
41.540	4790.000
41.600	3955.000
41.660	2185.000
41.720	1510.000
41.780	1455.000
41.840	1350.000
41.900	1295.000
41.960	1245.000
42.020	1185.000
42.080	1205.000
42.140	1190.000
42.200	1205.000
42.260	1285.000
42.320	1370.000
42.380	1240.000
42.440	1185.000
42.500	1215.000
42.560	1100.000
42.620	1195.000
42.680	1120.000
42.740	1165.000
42.800	1120.000
42.860	1230.000
42.920	1190.000
42.980	1190.000
43.040	1180.000
43.100	1160.000
43.160	1215.000
43.220	1320.000
43.280	1280.000
43.340	1270.000
43.400	1400.000
43.460	1290.000
43.520	1445.000
43.580	1695.000
43.640	2550.000
43.700	2930.000
43.760	2355.000
43.820	2085.000
43.880	1635.000
43.940	1445.000
44.000	1625.000
44.060	1635.000
44.120	1630.000
44.180	1850.000
44.240	1870.000
44.300	1920.000
44.360	2375.000
44.420	2385.000
44.480	3100.000
44.540	4505.000
44.600	8370.000
44.660	17250.000
44.720	18225.000
44.780	13690.000
44.840	10515.000
44.900	7485.000
44.960	7680.000
45.020	5650.000
45.080	4940.000
45.140	3205.000
45.200	2435.000
45.260	2030.000
45.320	1960.000
45.380	1830.000
45.440	1900.000
45.500	1815.000
45.560	1790.000
45.620	1735.000
45.680	1710.000
45.740	2110.000
45.800	2600.000
45.860	4315.000
45.920	10110.000
45.980	10280.000
46.040	7005.000
46.100	6240.000
46.160	3460.000
46.220	4165.000
46.280	4405.000
46.340	3435.000
46.400	3000.000
46.460	1780.000
46.520	1560.000
46.580	1355.000
46.640	1320.000
46.700	1280.000
46.760	1180.000
46.820	1240.000
46.880	1285.000
46.940	1210.000
47.000	1125.000
47.060	1175.000
47.120	1150.000
47.180	1170.000
47.240	1305.000
47.300	1320.000
47.360	1585.000
47.420	1970.000
47.480	2390.000
47.540	1950.000
47.600	2245.000
47.660	2530.000
47.720	4005.000
47.780	4335.000
47.840	3490.000
47.900	3645.000
47.960	2805.000
48.020	2560.000
48.080	2415.000
48.140	2055.000
48.200	1740.000
48.260	1395.000
48.320	1305.000
48.380	1395.000
48.440	1285.000
48.500	1325.000
48.560	1275.000
48.620	1240.000
48.680	1440.000
48.740	1325.000
48.800	1330.000
48.860	1460.000
48.920	1330.000
48.980	1385.000
49.040	1370.000
49.100	1335.000
49.160	1305.000
49.220	1315.000
49.280	1300.000
49.340	1190.000
49.400	1315.000
49.460	1390.000
49.520	1210.000
49.580	1485.000
49.640	1885.000
49.700	2615.000
49.760	2030.000
49.820	2010.000
49.880	1665.000
49.940	1410.000
50.000	1310.000
50.060	1320.000
50.120	1220.000
50.180	1290.000
50.240	1150.000
50.300	1180.000
50.360	1120.000
50.420	1225.000
50.480	1145.000
50.540	1240.000
50.600	1370.000
50.660	1430.000
50.720	2100.000
50.780	3410.000
50.840	5955.000
50.900	4875.000
50.960	4155.000
51.020	3700.000
51.080	3155.000
51.140	3085.000
51.200	2355.000
51.260	2215.000
51.320	2095.000
51.380	2075.000
51.440	2480.000
51.500	4180.000
51.560	6880.000
51.620	5820.000
51.680	4780.000
51.740	4200.000
51.800	2230.000
51.860	1555.000
51.920	1335.000
51.980	1195.000
52.040	1175.000
52.100	1150.000
52.160	1065.000
52.220	1050.000
52.280	985.000
52.340	1025.000
52.400	1085.000
52.460	1060.000
52.520	1015.000
52.580	1190.000
52.640	1110.000
52.700	1105.000
52.760	1160.000
52.820	1290.000
52.880	1410.000
52.940	1575.000
53.000	1365.000
53.060	1445.000
53.120	1290.000
53.180	1265.000
53.240	1160.000
53.300	1185.000
53.360	1255.000
53.420	1305.000
53.480	1435.000
53.540	1520.000
53.600	1585.000
53.660	1935.000
53.720	2760.000
53.780	4250.000
53.840	7710.000
53.900	7955.000
53.960	7715.000
54.020	10485.000
54.080	11060.000
54.140	7345.000
54.200	7000.000
54.260	5020.000
54.320	3225.000
54.380	2600.000
54.440	2780.000
54.500	3160.000
54.560	3740.000
54.620	4375.000
54.680	4275.000
54.740	4610.000
54.800	3485.000
54.860	2930.000
54.920	2505.000
54.980	2045.000
55.040	1705.000
55.100	1800.000
55.160	1960.000
55.220	2505.000
55.280	2175.000
55.340	1985.000
55.400	1890.000
55.460	1505.000
55.520	1430.000
55.580	1385.000
55.640	1485.000
55.700	1665.000
55.760	1615.000
55.820	1585.000
55.880	1600.000
55.940	1395.000
56.000	1330.000
56.060	1200.000
56.120	1205.000
56.180	1130.000
56.240	1135.000
56.300	1260.000
56.360	1350.000
56.420	1550.000
56.480	2205.000
56.540	2590.000
56.600	1810.000
56.660	1955.000
56.720	1640.000
56.780	1295.000
56.840	1325.000
56.900	1500.000
56.960	1595.000
57.020	1610.000
57.080	1785.000
57.140	1705.000
57.200	1705.000
57.260	1735.000
57.320	1585.000
57.380	1475.000
57.440	1425.000
57.500	1510.000
57.560	1515.000
57.620	1630.000
57.680	1715.000
57.740	1735.000
57.800	1940.000
57.860	2075.000
57.920	2845.000
57.980	4735.000
58.040	9810.000
58.100	12255.000
58.160	7595.000
58.220	8010.000
58.280	6055.000
58.340	4185.000
58.400	4250.000
58.460	3845.000
58.520	2710.000
58.580	2720.000
58.640	2090.000
58.700	1590.000
58.760	1485.000
58.820	1445.000
58.880	1445.000
58.940	1490.000
59.000	1945.000
59.060	2490.000
59.120	2985.000
59.180	2680.000
59.240	3430.000
59.300	4350.000
59.360	5880.000
59.420	4175.000
59.480	3490.000
59.540	3275.000
59.600	2020.000
59.660	1475.000
59.720	1345.000
59.780	1280.000
59.840	1245.000
59.900	1220.000
59.960	1205.000
60.020	1060.000
60.080	1115.000
60.140	1150.000
60.200	1080.000
60.260	1125.000
60.320	1205.000
60.380	1180.000
60.440	1240.000
60.500	1285.000
60.560	1300.000
60.620	1400.000
60.680	1720.000
60.740	1935.000
60.800	2795.000
60.860	4365.000
60.920	8020.000
60.980	12605.000
61.040	9020.000
61.100	7010.000
61.160	7205.000
61.220	4440.000
61.280	2670.000
61.340	1970.000
61.400	1865.000
61.460	1830.000
61.520	2080.000
61.580	3235.000
61.640	4305.000
61.700	3315.000
61.760	2780.000
61.820	2850.000
61.880	1900.000
61.940	1475.000
62.000	1210.000
62.060	1075.000
62.120	1050.000
62.180	1000.000
62.240	1005.000
62.300	990.000
62.360	910.000
62.420	1030.000
62.480	1025.000
62.540	1050.000
62.600	1050.000
62.660	1370.000
62.720	1960.000
62.780	2440.000
62.840	2180.000
62.900	2500.000
62.960	2235.000
63.020	1950.000
63.080	2295.000
63.140	1995.000
63.200	1455.000
63.260	1575.000
63.320	1305.000
63.380	1135.000
63.440	1045.000
63.500	980.000
63.560	905.000
63.620	1035.000
63.680	915.000
63.740	985.000
63.800	945.000
63.860	1055.000
63.920	945.000
63.980	1055.000
64.040	1470.000
64.100	1715.000
64.160	1740.000
64.220	1485.000
64.280	1455.000
64.340	1445.000
64.400	1400.000
64.460	1440.000
64.520	1620.000
64.580	2385.000
64.640	3480.000
64.700	3650.000
64.760	2675.000
64.820	2475.000
64.880	2360.000
64.940	1610.000
65.000	1265.000
65.060	1180.000
65.120	1150.000
65.180	1105.000
65.240	1125.000
65.300	1050.000
65.360	1025.000
65.420	1030.000
65.480	1060.000
65.540	1080.000
65.600	1240.000
65.660	1270.000
65.720	1275.000
65.780	1395.000
65.840	1205.000
65.900	1215.000
65.960	1155.000
66.020	1220.000
66.080	1170.000
66.140	1115.000
66.200	1015.000
66.260	1120.000
66.320	1150.000
66.380	1045.000
66.440	980.000
66.500	960.000
66.560	995.000
66.620	865.000
66.680	880.000
66.740	890.000
66.800	920.000
66.860	1060.000
66.920	1020.000
66.980	980.000
67.040	1060.000
67.100	1030.000
67.160	1275.000
67.220	1540.000
67.280	2215.000
67.340	2475.000
67.400	1870.000
67.460	1720.000
67.520	2030.000
67.580	1500.000
67.640	1335.000
67.700	1245.000
67.760	1455.000
67.820	1735.000
67.880	1995.000
67.940	1495.000
68.000	1440.000
68.060	1615.000
68.120	1330.000
68.180	1315.000
68.240	1680.000
68.300	2335.000
68.360	2420.000
68.420	1815.000
68.480	1795.000
68.540	1910.000
68.600	1920.000
68.660	1945.000
68.720	2405.000
68.780	2010.000
68.840	1725.000
68.900	2045.000
68.960	1985.000
69.020	1770.000
69.080	1640.000
69.140	1605.000
69.200	2125.000
69.260	2760.000
69.320	2580.000
69.380	1890.000
69.440	1880.000
69.500	1905.000
69.560	1375.000
69.620	1175.000
69.680	1095.000
69.740	1115.000
69.800	980.000
69.860	960.000
69.920	1110.000
69.980	1220.000
70.040	1230.000
70.100	1060.000
70.160	1050.000
70.220	1040.000
70.280	1105.000
70.340	965.000
70.400	880.000
70.460	900.000
70.520	890.000
70.580	890.000
70.640	975.000
70.700	890.000
70.760	950.000
70.820	915.000
70.880	895.000
70.940	960.000
71.000	825.000
71.060	900.000
71.120	950.000
71.180	925.000
71.240	1015.000
71.300	1190.000
71.360	1415.000
71.420	1740.000
71.480	1550.000
71.540	1455.000
71.600	1700.000
71.660	2415.000
71.720	2980.000
71.780	2185.000
71.840	1675.000
71.900	1835.000
71.960	1685.000
72.020	1400.000
72.080	1150.000
72.140	1110.000
72.200	1135.000
72.260	1235.000
72.320	1505.000
72.380	2120.000
72.440	3035.000
72.500	4720.000
72.560	3925.000
72.620	2760.000
72.680	2705.000
72.740	2885.000
72.800	1820.000
72.860	1335.000
72.920	1040.000
72.980	895.000
73.040	925.000
73.100	860.000
73.160	810.000
73.220	780.000
73.280	835.000
73.340	765.000
73.400	890.000
73.460	825.000
73.520	695.000
73.580	845.000
73.640	795.000
73.700	890.000
73.760	875.000
73.820	965.000
73.880	1150.000
73.940	1190.000
74.000	1035.000
74.060	1035.000
74.120	1075.000
74.180	1045.000
74.240	900.000
74.300	840.000
74.360	840.000
74.420	780.000
74.480	795.000
74.540	900.000
74.600	790.000
74.660	850.000
74.720	800.000
74.780	855.000
74.840	700.000
74.900	795.000
74.960	730.000
75.020	740.000
75.080	800.000
75.140	850.000
75.200	815.000
75.260	785.000
75.320	820.000
75.380	915.000
75.440	890.000
75.500	950.000
75.560	995.000
75.620	935.000
75.680	965.000
75.740	950.000
75.800	950.000
75.860	880.000
75.920	845.000
75.980	925.000
76.040	875.000
76.100	940.000
76.160	885.000
76.220	885.000
76.280	1130.000
76.340	1130.000
76.400	1070.000
76.460	1080.000
76.520	1320.000
76.580	1290.000
76.640	1710.000
76.700	1825.000
76.760	1475.000
76.820	1530.000
76.880	1690.000
76.940	1765.000
77.000	1910.000
77.060	2625.000
77.120	3085.000
77.180	2300.000
77.240	2075.000
77.300	2215.000
77.360	2090.000
77.420	1470.000
77.480	1225.000
77.540	1105.000
77.600	1110.000
77.660	945.000
77.720	880.000
77.780	755.000
77.840	755.000
77.900	755.000
77.960	785.000
78.020	725.000
78.080	750.000
78.140	775.000
78.200	790.000
78.260	770.000
78.320	865.000
78.380	920.000
78.440	1045.000
78.500	1050.000
78.560	995.000
78.620	990.000
78.680	1485.000
78.740	1435.000
78.800	1075.000
78.860	975.000
78.920	1020.000
78.980	1040.000
79.040	840.000
79.100	785.000
79.160	730.000
79.220	680.000
79.280	630.000
79.340	710.000
79.400	680.000
79.460	710.000
79.520	700.000
79.580	770.000
79.640	650.000
79.700	690.000
79.760	755.000
79.820	835.000
79.880	855.000
79.940	1010.000
80.000	985.000
80.060	780.000
80.120	855.000
80.180	910.000
80.240	860.000
80.300	740.000
80.360	770.000
80.420	795.000
80.480	765.000
80.540	770.000
80.600	690.000
80.660	850.000
80.720	930.000
80.780	940.000
80.840	1125.000
80.900	1075.000
80.960	1070.000
81.020	1240.000
81.080	1345.000
81.140	1150.000
81.200	1085.000
81.260	1035.000
81.320	1170.000
81.380	1375.000
81.440	1210.000
81.500	1135.000
81.560	1010.000
81.620	1020.000
81.680	1050.000
81.740	805.000
81.800	750.000
81.860	735.000
81.920	680.000
81.980	690.000
82.040	730.000
82.100	660.000
82.160	710.000
82.220	670.000
82.280	735.000
82.340	665.000
82.400	695.000
82.460	770.000
82.520	770.000
82.580	770.000
82.640	700.000
82.700	760.000
82.760	740.000
82.820	730.000
82.880	805.000
82.940	790.000
83.000	865.000
83.060	1100.000
83.120	1175.000
83.180	1295.000
83.240	1675.000
83.300	2000.000
83.360	2055.000
83.420	2790.000
83.480	3105.000
83.540	2980.000
83.600	2200.000
83.660	1880.000
83.720	1895.000
83.780	1825.000
83.840	1385.000
83.900	1085.000
83.960	865.000
84.020	955.000
84.080	880.000
84.140	835.000
84.200	895.000
84.260	965.000
84.320	1220.000
84.380	1220.000
84.440	1120.000
84.500	910.000
84.560	1055.000
84.620	945.000
84.680	915.000
84.740	775.000
84.800	720.000
84.860	775.000
84.920	820.000
84.980	750.000
85.040	745.000
85.100	755.000
85.160	745.000
85.220	735.000
85.280	740.000
85.340	755.000
85.400	825.000
85.460	845.000
85.520	1005.000
85.580	840.000
85.640	870.000
85.700	765.000
85.760	830.000
85.820	805.000
85.880	760.000
85.940	715.000
86.000	740.000
86.060	820.000
86.120	860.000
86.180	735.000
86.240	790.000
86.300	710.000
86.360	720.000
86.420	760.000
86.480	750.000
86.540	690.000
86.600	760.000
86.660	890.000
86.720	860.000
86.780	880.000
86.840	950.000
86.900	1190.000
86.960	1430.000
87.020	1675.000
87.080	1750.000
87.140	1290.000
87.200	1285.000
87.260	1265.000
87.320	1355.000
87.380	1190.000
87.440	930.000
87.500	840.000
87.560	955.000
87.620	880.000
87.680	905.000
87.740	855.000
87.800	805.000
87.860	810.000
87.920	800.000
87.980	935.000
88.040	705.000
88.100	635.000
88.160	700.000
88.220	695.000
88.280	725.000
88.340	740.000
88.400	725.000
88.460	690.000
88.520	725.000
88.580	660.000
88.640	785.000
88.700	785.000
88.760	805.000
88.820	740.000
88.880	800.000
88.940	850.000
89.000	875.000
89.060	1155.000
89.120	1195.000
89.180	1400.000
89.240	1940.000
89.300	2105.000
89.360	1645.000
89.420	1500.000
89.480	1680.000
89.540	1895.000
89.600	1805.000
89.660	1485.000
89.720	1550.000
89.780	1755.000
89.840	1915.000
89.900	1695.000
89.960	1625.000
90.000	1625.000