File: xrd/Graphene_ZnO_in_FeCl3.xy
5.000	2035.000
5.060	1875.000
5.120	1895.000
5.180	2035.000
5.240	1985.000
5.300	1850.000
5.360	1950.000
5.420	2075.000
5.480	1950.000
5.540	1770.000
5.600	1800.000
5.660	1780.000
5.720	1810.000
5.780	1880.000
5.840	1565.000
5.900	1655.000
5.960	1615.000
6.020	1665.000
6.080	1720.000
6.140	1735.000
6.200	1625.000
6.260	1550.000
6.320	1685.000
6.380	1670.000
6.440	1655.000
6.500	1595.000
6.560	1575.000
6.620	1630.000
6.680	1645.000
6.740	1675.000
6.800	1615.000
6.860	1605.000
6.920	1735.000
6.980	1680.000
7.040	1550.000
7.100	1640.000
7.160	1605.000
7.220	1535.000
7.280	1610.000
7.340	1570.000
7.400	1750.000
7.460	1670.000
7.520	1615.000
7.580	1665.000
7.640	1615.000
7.700	1540.000
7.760	1585.000
7.820	1555.000
7.880	1470.000
7.940	1665.000
8.000	1510.000
8.060	1560.000
8.120	1535.000
8.180	1575.000
8.240	1560.000
8.300	1560.000
8.360	1540.000
8.420	1665.000
8.480	1645.000
8.540	1655.000
8.600	1625.000
8.660	1660.000
8.720	1640.000
8.780	1630.000
8.840	1635.000
8.900	1650.000
8.960	1600.000
9.020	1645.000
9.080	1705.000
9.140	1755.000
9.200	1635.000
9.260	1640.000
9.320	1705.000
9.380	1635.000
9.440	1730.000
9.500	1655.000
9.560	1775.000
9.620	1770.000
9.680	1740.000
9.740	1840.000
9.800	1720.000
9.860	1605.000
9.920	1730.000
9.980	1680.000
10.040	1780.000
10.100	1750.000
10.160	1695.000
10.220	1740.000
10.280	1780.000
10.340	1775.000
10.400	1765.000
10.460	1870.000
10.520	1875.000
10.580	1820.000
10.640	1860.000
10.700	1805.000
10.760	1820.000
10.820	1915.000
10.880	1965.000
10.940	1800.000
11.000	1930.000
11.060	2060.000
11.120	1965.000
11.180	1985.000
11.240	1975.000
11.300	1995.000
11.360	2015.000
11.420	2075.000
11.480	1955.000
11.540	2160.000
11.600	2175.000
11.660	2235.000
11.720	2110.000
11.780	2220.000
11.840	2105.000
11.900	2070.000
11.960	2130.000
12.020	2345.000
12.080	2040.000
12.140	2100.000
12.200	2170.000
12.260	2090.000
12.320	2175.000
12.380	2320.000
12.440	2125.000
12.500	2245.000
12.560	2085.000
12.620	2155.000
12.680	2075.000
12.740	2270.000
12.800	2265.000
12.860	2235.000
12.920	2290.000
12.980	2200.000
13.040	2235.000
13.100	2155.000
13.160	2170.000
13.220	2210.000
13.280	2330.000
13.340	2270.000
13.400	2390.000
13.460	2225.000
13.520	2315.000
13.580	2320.000
13.640	2435.000
13.700	2395.000
13.760	2155.000
13.820	2295.000
13.880	2285.000
13.940	2305.000
14.000	2345.000
14.060	2405.000
14.120	2330.000
14.180	2450.000
14.240	2410.000
14.300	2350.000
14.360	2275.000
14.420	2405.000
14.480	2455.000
14.540	2510.000
14.600	2495.000
14.660	2440.000
14.720	2435.000
14.780	2550.000
14.840	2440.000
14.900	2410.000
14.960	2445.000
15.020	2440.000
15.080	2560.000
15.140	2575.000
15.200	2455.000
15.260	2755.000
15.320	2720.000
15.380	2600.000
15.440	2695.000
15.500	2820.000
15.560	2655.000
15.620	2765.000
15.680	2695.000
15.740	2655.000
15.800	2815.000
15.860	2675.000
15.920	2730.000
15.980	2770.000
16.040	2935.000
16.100	2940.000
16.160	2845.000
16.220	2870.000
16.280	2965.000
16.340	2880.000
16.400	2915.000
16.460	2910.000
16.520	3085.000
16.580	2980.000
16.640	3035.000
16.700	2915.000
16.760	3170.000
16.820	3190.000
16.880	3115.000
16.940	3005.000
17.000	3000.000
17.060	3030.000
17.120	3045.000
17.180	3105.000
17.240	3170.000
17.300	3025.000
17.360	3095.000
17.420	2995.000
17.480	2905.000
17.540	3055.000
17.600	3000.000
17.660	2925.000
17.720	3045.000
17.780	3115.000
17.840	3020.000
17.900	3230.000
17.960	3085.000
18.020	3015.000
18.080	3140.000
18.140	3030.000
18.200	2925.000
18.260	3035.000
18.320	3050.000
18.380	2925.000
18.440	3010.000
18.500	3070.000
18.560	3065.000
18.620	3070.000
18.680	2955.000
18.740	3145.000
18.800	3095.000
18.860	2855.000
18.920	3045.000
18.980	3175.000
19.040	3110.000
19.100	3095.000
19.160	3115.000
19.220	2985.000
19.280	3090.000
19.340	3175.000
19.400	3145.000
19.460	3165.000
19.520	3125.000
19.580	3010.000
19.640	3050.000
19.700	3085.000
19.760	3185.000
19.820	3110.000
19.880	3235.000
19.940	3120.000
20.000	2960.000
20.060	3185.000
20.120	3035.000
20.180	3160.000
20.240	3230.000
20.300	3175.000
20.360	3180.000
20.420	3230.000
20.480	3065.000
20.540	3125.000
20.600	3185.000
20.660	3270.000
20.720	3150.000
20.780	3215.000
20.840	3080.000
20.900	3180.000
20.960	3120.000
21.020	3175.000
21.080	3180.000
21.140	3175.000
21.200	3140.000
21.260	3175.000
21.320	3190.000
21.380	3190.000
21.440	3285.000
21.500	3180.000
21.560	3035.000
21.620	3130.000
21.680	3235.000
21.740	3255.000
21.800	3185.000
21.860	3150.000
21.920	3325.000
21.980	3240.000
22.040	3220.000
22.100	3145.000
22.160	3255.000
22.220	3295.000
22.280	3240.000
22.340	3245.000
22.400	3125.000
22.460	3380.000
22.520	3165.000
22.580	3240.000
22.640	3320.000
22.700	3460.000
22.760	3305.000
22.820	3310.000
22.880	3320.000
22.940	3390.000
23.000	3460.000
23.060	3335.000
23.120	3515.000
23.180	3430.000
23.240	3265.000
23.300	3510.000
23.360	3395.000
23.420	3440.000
23.480	3290.000
23.540	3240.000
23.600	3425.000
23.660	3460.000
23.720	3450.000
23.780	3450.000
23.840	3440.000
23.900	3510.000
23.960	3465.000
24.020	3475.000
24.080	3375.000
24.140	3435.000
24.200	3255.000
24.260	3575.000
24.320	3685.000
24.380	3565.000
24.440	3355.000
24.500	3595.000
24.560	3335.000
24.620	3625.000
24.680	3490.000
24.740	3630.000
24.800	3595.000
24.860	3700.000
24.920	3555.000
24.980	3705.000
25.040	3630.000
25.100	3685.000
25.160	3650.000
25.220	3490.000
25.280	3545.000
25.340	3840.000
25.400	3720.000
25.460	3815.000
25.520	3860.000
25.580	3865.000
25.640	3910.000
25.700	3880.000
25.760	3775.000
25.820	4085.000
25.880	3820.000
25.940	3965.000
26.000	4190.000
26.060	4270.000
26.120	4385.000
26.180	4505.000
26.240	4480.000
26.300	4550.000
26.360	4535.000
26.420	4590.000
26.480	4645.000
26.540	4685.000
26.600	4675.000
26.660	4535.000
26.720	4705.000
26.780	4600.000
26.840	4515.000
26.900	4665.000
26.960	4505.000
27.020	4470.000
27.080	4280.000
27.140	4420.000
27.200	4280.000
27.260	4290.000
27.320	4300.000
27.380	4280.000
27.440	4200.000
27.500	4215.000
27.560	4300.000
27.620	4015.000
27.680	4065.000
27.740	4010.000
27.800	3845.000
27.860	4010.000
27.920	4045.000
27.980	4055.000
28.040	3955.000
28.100	3975.000
28.160	4360.000
28.220	3840.000
28.280	4015.000
28.340	4035.000
28.400	3955.000
28.460	3815.000
28.520	4020.000
28.580	4030.000
28.640	4120.000
28.700	3890.000
28.760	3990.000
28.820	3930.000
28.880	3925.000
28.940	3955.000
29.000	3860.000
29.060	3900.000
29.120	4025.000
29.180	3855.000
29.240	3925.000
29.300	3850.000
29.360	3945.000
29.420	3845.000
29.480	3940.000
29.540	4160.000
29.600	3910.000
29.660	3970.000
29.720	4080.000
29.780	3935.000
29.840	3950.000
29.900	4125.000
29.960	3870.000
30.020	3830.000
30.080	4050.000
30.140	3985.000
30.200	3965.000
30.260	4080.000
30.320	3895.000
30.380	4010.000
30.440	3870.000
30.500	4070.000
30.560	4160.000
30.620	3965.000
30.680	4005.000
30.740	4240.000
30.800	4115.000
30.860	3945.000
30.920	3945.000
30.980	4115.000
31.040	3910.000
31.100	3865.000
31.160	3740.000
31.220	3840.000
31.280	3825.000
31.340	4090.000
31.400	3900.000
31.460	3820.000
31.520	4000.000
31.580	3910.000
31.640	3900.000
31.700	3885.000
31.760	3870.000
31.820	4040.000
31.880	4060.000
31.940	4195.000
32.000	4195.000
32.060	3975.000
32.120	3810.000
32.180	3870.000
32.240	3980.000
32.300	3800.000
32.360	3805.000
32.420	3890.000
32.480	3820.000
32.540	3965.000
32.600	3895.000
32.660	3935.000
32.720	3845.000
32.780	3800.000
32.840	3960.000
32.900	3905.000
32.960	3980.000
33.020	4075.000
33.080	3800.000
33.140	3965.000
33.200	3935.000
33.260	3975.000
33.320	3800.000
33.380	4045.000
33.440	3940.000
33.500	4145.000
33.560	3955.000
33.620	4065.000
33.680	3995.000
33.740	4185.000
33.800	4040.000
33.860	3945.000
33.920	4160.000
33.980	4030.000
34.040	4210.000
34.100	4145.000
34.160	4060.000
34.220	4255.000
34.280	4280.000
34.340	4085.000
34.400	4110.000
34.460	4245.000
34.520	4420.000
34.580	4475.000
34.640	4360.000
34.700	4350.000
34.760	4560.000
34.820	4535.000
34.880	4435.000
34.940	4705.000
35.000	4720.000
35.060	4605.000
35.120	4695.000
35.180	4555.000
35.240	4730.000
35.300	4555.000
35.360	4550.000
35.420	4340.000
35.480	4620.000
35.540	4535.000
35.600	4195.000
35.660	4290.000
35.720	4190.000
35.780	4140.000
35.840	4190.000
35.900	4050.000
35.960	3955.000
36.020	4045.000
36.080	3925.000
36.140	4015.000
36.200	3980.000
36.260	3915.000
36.320	3855.000
36.380	3740.000
36.440	4055.000
36.500	3990.000
36.560	3775.000
36.620	4015.000
36.680	3875.000
36.740	3825.000
36.800	3945.000
36.860	3960.000
36.920	3875.000
36.980	3990.000
37.040	3850.000
37.100	4000.000
37.160	3805.000
37.220	3920.000
37.280	3975.000
37.340	3850.000
37.400	3860.000
37.460	3825.000
37.520	3910.000
37.580	3780.000
37.640	3750.000
37.700	3765.000
37.760	3835.000
37.820	3930.000
37.880	3940.000
37.940	3770.000
38.000	4090.000
38.060	3980.000
38.120	3815.000
38.180	3950.000
38.240	3995.000
38.300	3870.000
38.360	3845.000
38.420	4020.000
38.480	3980.000
38.540	4005.000
38.600	3920.000
38.660	4045.000
38.720	3975.000
38.780	4180.000
38.840	4110.000
38.900	4060.000
38.960	4025.000
39.020	4005.000
39.080	4135.000
39.140	4130.000
39.200	4150.000
39.260	4025.000
39.320	4105.000
39.380	4115.000
39.440	3970.000
39.500	3960.000
39.560	4040.000
39.620	3880.000
39.680	3965.000
39.740	4045.000
39.800	4015.000
39.860	3945.000
39.920	3985.000
39.980	3900.000
40.040	3885.000
40.100	4005.000
40.160	3805.000
40.220	3985.000
40.280	3895.000
40.340	3910.000
40.400	3985.000
40.460	3830.000
40.520	3940.000
40.580	3760.000
40.640	4010.000
40.700	3970.000
40.760	3765.000
40.820	3720.000
40.880	3980.000
40.940	3830.000
41.000	3930.000
41.060	3885.000
41.120	3885.000
41.180	3745.000
41.240	3890.000
41.300	3915.000
41.360	3920.000
41.420	3890.000
41.480	3900.000
41.540	3860.000
41.600	3950.000
41.660	3785.000
41.720	3950.000
41.780	3875.000
41.840	3860.000
41.900	3830.000
41.960	4005.000
42.020	3990.000
42.080	3940.000
42.140	3800.000
42.200	3885.000
42.260	3995.000
42.320	3855.000
42.380	3900.000
42.440	4080.000
42.500	4105.000
42.560	4170.000
42.620	3720.000
42.680	4155.000
42.740	3955.000
42.800	4110.000
42.860	3895.000
42.920	3880.000
42.980	3955.000
43.040	3965.000
43.100	4145.000
43.160	4160.000
43.220	3965.000
43.280	4130.000
43.340	3960.000
43.400	4010.000
43.460	3920.000
43.520	3865.000
43.580	4100.000
43.640	4105.000
43.700	4010.000
43.760	4015.000
43.820	4040.000
43.880	3985.000
43.940	3995.000
44.000	4090.000
44.060	4095.000
44.120	4000.000
44.180	3985.000
44.240	4170.000
44.300	3980.000
44.360	4005.000
44.420	4150.000
44.480	4085.000
44.540	4055.000
44.600	4075.000
44.660	4085.000
44.720	4095.000
44.780	4040.000
44.840	4095.000
44.900	4065.000
44.960	4030.000
45.020	4045.000
45.080	4005.000
45.140	4060.000
45.200	4005.000
45.260	4060.000
45.320	3995.000
45.380	3980.000
45.440	4055.000
45.500	4315.000
45.560	4125.000
45.620	4030.000
45.680	4345.000
45.740	4295.000
45.800	4290.000
45.860	4120.000
45.920	4295.000
45.980	3990.000
46.040	4115.000
46.100	4270.000
46.160	4295.000
46.220	4050.000
46.280	4165.000
46.340	4190.000
46.400	4295.000
46.460	4195.000
46.520	4205.000
46.580	4265.000
46.640	4045.000
46.700	4345.000
46.760	4050.000
46.820	4295.000
46.880	4265.000
46.940	4195.000
47.000	4195.000
47.060	3975.000
47.120	4135.000
47.180	3985.000
47.240	4020.000
47.300	4120.000
47.360	4160.000
47.420	4100.000
47.480	4195.000
47.540	4170.000
47.600	4190.000
47.660	4075.000
47.720	3905.000
47.780	4040.000
47.840	4125.000
47.900	4260.000
47.960	4130.000
48.020	4115.000
48.080	4120.000
48.140	4145.000
48.200	3975.000
48.260	4060.000
48.320	4265.000
48.380	4100.000
48.440	3955.000
48.500	4020.000
48.560	4135.000
48.620	4105.000
48.680	4325.000
48.740	4045.000
48.800	4195.000
48.860	4200.000
48.920	4040.000
48.980	4070.000
49.040	4140.000
49.100	4155.000
49.160	4230.000
49.220	4140.000
49.280	4030.000
49.340	4140.000
49.400	4325.000
49.460	4305.000
49.520	4250.000
49.580	4190.000
49.640	3980.000
49.700	4095.000
49.760	4255.000
49.820	3995.000
49.880	4090.000
49.940	3995.000
50.000	4040.000
50.060	4040.000
50.120	4005.000
50.180	4210.000
50.240	3895.000
50.300	4360.000
50.360	4045.000
50.420	4020.000
50.480	4145.000
50.540	3975.000
50.600	4090.000
50.660	4065.000
50.720	4140.000
50.780	3955.000
50.840	4060.000
50.900	4150.000
50.960	4105.000
51.020	4190.000
51.080	4025.000
51.140	4135.000
51.200	4105.000
51.260	4040.000
51.320	4080.000
51.380	4245.000
51.440	4025.000
51.500	4170.000
51.560	4230.000
51.620	3930.000
51.680	4335.000
51.740	4205.000
51.800	4205.000
51.860	4165.000
51.920	4305.000
51.980	4410.000
52.040	4215.000
52.100	4250.000
52.160	4285.000
52.220	4265.000
52.280	4125.000
52.340	4240.000
52.400	4270.000
52.460	4200.000
52.520	4190.000
52.580	4265.000
52.640	4295.000
52.700	4030.000
52.760	4285.000
52.820	4005.000
52.880	4135.000
52.940	4215.000
53.000	4380.000
53.060	4235.000
53.120	4130.000
53.180	4190.000
53.240	4160.000
53.300	4250.000
53.360	4165.000
53.420	4260.000
53.480	4125.000
53.540	4030.000
53.600	3950.000
53.660	4190.000
53.720	4160.000
53.780	4245.000
53.840	3990.000
53.900	4090.000
53.960	4075.000
54.020	4020.000
54.080	3970.000
54.140	4085.000
54.200	4185.000
54.260	4155.000
54.320	4195.000
54.380	4050.000
54.440	4410.000
54.500	4110.000
54.560	4230.000
54.620	4240.000
54.680	4170.000
54.740	3815.000
54.800	4215.000
54.860	4070.000
54.920	4315.000
54.980	4305.000
55.040	4175.000
55.100	4170.000
55.160	4145.000
55.220	4225.000
55.280	4145.000
55.340	4485.000
55.400	4275.000
55.460	4430.000
55.520	4410.000
55.580	4240.000
55.640	4285.000
55.700	4365.000
55.760	4445.000
55.820	4445.000
55.880	4430.000
55.940	4205.000
56.000	4475.000
56.060	4235.000
56.120	4510.000
56.180	4305.000
56.240	4295.000
56.300	4365.000
56.360	4315.000
56.420	4220.000
56.480	4390.000
56.540	4305.000
56.600	4160.000
56.660	4450.000
56.720	4255.000
56.780	4220.000
56.840	4170.000
56.900	3945.000
56.960	4005.000
57.020	4000.000
57.080	3950.000
57.140	4045.000
57.200	4115.000
57.260	3995.000
57.320	3925.000
57.380	3870.000
57.440	3925.000
57.500	4015.000
57.560	3810.000
57.620	3780.000
57.680	3855.000
57.740	3970.000
57.800	3960.000
57.860	3930.000
57.920	3815.000
57.980	3895.000
58.040	3950.000
58.100	3825.000
58.160	3825.000
58.220	3805.000
58.280	4115.000
58.340	3815.000
58.400	3840.000
58.460	3785.000
58.520	3850.000
58.580	3825.000
58.640	3785.000
58.700	3860.000
58.760	3800.000
58.820	3960.000
58.880	3895.000
58.940	3775.000
59.000	3885.000
59.060	3760.000
59.120	4000.000
59.180	3880.000
59.240	3820.000
59.300	3980.000
59.360	3840.000
59.420	3690.000
59.480	3925.000
59.540	3805.000
59.600	3800.000
59.660	3815.000
59.720	3840.000
59.780	3840.000
59.840	3880.000
59.900	3825.000
59.960	4090.000
60.020	4015.000
60.080	4025.000
60.140	3855.000
60.200	3905.000
60.260	3960.000
60.320	3925.000
60.380	3975.000
60.440	3935.000
60.500	3875.000
60.560	3830.000
60.620	3865.000
60.680	3970.000
60.740	3885.000
60.800	3995.000
60.860	3905.000
60.920	4195.000
60.980	4295.000
61.040	3955.000
61.100	4065.000
61.160	4105.000
61.220	3990.000
61.280	4075.000
61.340	4050.000
61.400	4080.000
61.460	4075.000
61.520	3910.000
61.580	4215.000
61.640	4015.000
61.700	3930.000
61.760	4045.000
61.820	3865.000
61.880	3905.000
61.940	4100.000
62.000	4035.000
62.060	3985.000
62.120	4010.000
62.180	4055.000
62.240	3875.000
62.300	3885.000
62.360	4070.000
62.420	3990.000
62.480	3970.000
62.540	4050.000
62.600	3945.000
62.660	3935.000
62.720	4060.000
62.780	3945.000
62.840	4065.000
62.900	3865.000
62.960	3915.000
63.020	3865.000
63.080	3860.000
63.140	3880.000
63.200	3945.000
63.260	3930.000
63.320	4190.000
63.380	4085.000
63.440	4015.000
63.500	4120.000
63.560	4170.000
63.620	3875.000
63.680	4005.000
63.740	3895.000
63.800	4030.000
63.860	4170.000
63.920	4080.000
63.980	3980.000
64.040	3775.000
64.100	3970.000
64.160	4080.000
64.220	4080.000
64.280	3990.000
64.340	4035.000
64.400	3990.000
64.460	3865.000
64.520	4115.000
64.580	4075.000
64.640	4020.000
64.700	3825.000
64.760	3905.000
64.820	4075.000
64.880	3835.000
64.940	3985.000
65.000	3800.000
65.060	3970.000
65.120	3720.000
65.180	3775.000
65.240	3900.000
65.300	3990.000
65.360	3705.000
65.420	3810.000
65.480	3890.000
65.540	3940.000
65.600	3835.000
65.660	3825.000
65.720	3855.000
65.780	3785.000
65.840	3845.000
65.900	3865.000
65.960	3845.000
66.020	3800.000
66.080	3720.000
66.140	3860.000
66.200	3825.000
66.260	3835.000
66.320	3925.000
66.380	3705.000
66.440	3980.000
66.500	3665.000
66.560	3885.000
66.620	3825.000
66.680	3635.000
66.740	3825.000
66.800	3835.000
66.860	4100.000
66.920	3980.000
66.980	3905.000
67.040	3775.000
67.100	3930.000
67.160	3845.000
67.220	3740.000
67.280	3835.000
67.340	3740.000
67.400	3755.000
67.460	3745.000
67.520	3820.000
67.580	3855.000
67.640	3890.000
67.700	3905.000
67.760	3990.000
67.820	3960.000
67.880	3835.000
67.940	3965.000
68.000	3845.000
68.060	3925.000
68.120	3730.000
68.180	3910.000
68.240	3860.000
68.300	3880.000
68.360	3790.000
68.420	3815.000
68.480	3895.000
68.540	3790.000
68.600	3745.000
68.660	3765.000
68.720	3715.000
68.780	3735.000
68.840	3760.000
68.900	3665.000
68.960	3745.000
69.020	3765.000
69.080	3675.000
69.140	3815.000
69.200	3675.000
69.260	3900.000
69.320	3720.000
69.380	3835.000
69.440	3670.000
69.500	3780.000
69.560	3795.000
69.620	3650.000
69.680	3865.000
69.740	3585.000
69.800	3700.000
69.860	3745.000
69.920	3460.000
69.980	3755.000
70.040	3730.000
70.100	3760.000
70.160	3830.000
70.220	3575.000
70.280	3820.000
70.340	3720.000
70.400	3765.000
70.460	3710.000
70.520	3730.000
70.580	3670.000
70.640	3690.000
70.700	3745.000
70.760	3720.000
70.820	3815.000
70.880	3665.000
70.940	3890.000
71.000	3845.000
71.060	3745.000
71.120	3675.000
71.180	3825.000
71.240	3855.000
71.300	3735.000
71.360	3780.000
71.420	3665.000
71.480	3650.000
71.540	3760.000
71.600	3675.000
71.660	3800.000
71.720	3675.000
71.780	3560.000
71.840	3750.000
71.900	3845.000
71.960	3765.000
72.020	3800.000
72.080	3705.000
72.140	3695.000
72.200	3860.000
72.260	3910.000
72.320	3705.000
72.380	3775.000
72.440	3815.000
72.500	3680.000
72.560	3725.000
72.620	3705.000
72.680	3650.000
72.740	3865.000
72.800	3645.000
72.860	3645.000
72.920	3680.000
72.980	3670.000
73.040	3765.000
73.100	3750.000
73.160	3605.000
73.220	3675.000
73.280	3710.000
73.340	3560.000
73.400	3670.000
73.460	3680.000
73.520	3765.000
73.580	3730.000
73.640	3620.000
73.700	3615.000
73.760	3640.000
73.820	3645.000
73.880	3515.000
73.940	3695.000
74.000	3660.000
74.060	3620.000
74.120	3755.000
74.180	3740.000
74.240	3650.000
74.300	3685.000
74.360	3715.000
74.420	3800.000
74.480	3685.000
74.540	3725.000
74.600	3725.000
74.660	3635.000
74.720	3690.000
74.780	3655.000
74.840	3850.000
74.900	3745.000
74.960	3800.000
75.020	3715.000
75.080	3625.000
75.140	3575.000
75.200	3740.000
75.260	3640.000
75.320	3760.000
75.380	3655.000
75.440	3545.000
75.500	3590.000
75.560	3510.000
75.620	3730.000
75.680	3675.000
75.740	3720.000
75.800	3735.000
75.860	3660.000
75.920	3620.000
75.980	3670.000
76.040	3655.000
76.100	3630.000
76.160	3730.000
76.220	3510.000
76.280	3655.000
76.340	3675.000
76.400	3800.000
76.460	4000.000
76.520	3740.000
76.580	3645.000
76.640	3790.000
76.700	3705.000
76.760	3710.000
76.820	3710.000
76.880	3850.000
76.940	3600.000
77.000	3755.000
77.060	3595.000
77.120	3655.000
77.180	3640.000
77.240	3720.000
77.300	3670.000
77.360	3555.000
77.420	3795.000
77.480	3805.000
77.540	3660.000
77.600	3715.000
77.660	3550.000
77.720	3615.000
77.780	3675.000
77.840	3755.000
77.900	3820.000
77.960	3750.000
78.020	3520.000
78.080	3755.000
78.140	3630.000
78.200	3980.000
78.260	3705.000
78.320	3745.000
78.380	3615.000
78.440	3640.000
78.500	3580.000
78.560	3770.000
78.620	3760.000
78.680	3735.000
78.740	3685.000
78.800	3795.000
78.860	3640.000
78.920	3885.000
78.980	3690.000
79.040	3625.000
79.100	3555.000
79.160	3785.000
79.220	3600.000
79.280	3860.000
79.340	3725.000
79.400	3790.000
79.460	3695.000
79.520	3545.000
79.580	3690.000
79.640	3720.000
79.700	3750.000
79.760	3715.000
79.820	3775.000
79.880	3600.000
79.940	3815.000
80.000	3630.000
80.060	3745.000
80.120	3710.000
80.180	3535.000
80.240	3740.000
80.300	3655.000
80.360	3895.000
80.420	3625.000
80.480	3580.000
80.540	3650.000
80.600	3795.000
80.660	3695.000
80.720	3820.000
80.780	3535.000
80.840	3800.000
80.900	3685.000
80.960	3825.000
81.020	3790.000
81.080	3695.000
81.140	3605.000
81.200	3760.000
81.260	3650.000
81.320	3815.000
81.380	3590.000
81.440	3540.000
81.500	3560.000
81.560	3640.000
81.620	3635.000
81.680	3720.000
81.740	3610.000
81.800	3680.000
81.860	3550.000
81.920	3660.000
81.980	3635.000
82.040	3755.000
82.100	3705.000
82.160	3555.000
82.220	3835.000
82.280	3650.000
82.340	3520.000
82.400	3805.000
82.460	3760.000
82.520	3770.000
82.580	3755.000
82.640	3630.000
82.700	3805.000
82.760	3840.000
82.820	3575.000
82.880	3750.000
82.940	3530.000
83.000	3825.000
83.060	3565.000
83.120	3690.000
83.180	3585.000
83.240	3505.000
83.300	3695.000
83.360	3710.000
83.420	3670.000
83.480	3740.000
83.540	3790.000
83.600	3715.000
83.660	3675.000
83.720	3785.000
83.780	3790.000
83.840	3920.000
83.900	3725.000
83.960	3670.000
84.020	3715.000
84.080	3780.000
84.140	3680.000
84.200	3745.000
84.260	3900.000
84.320	3595.000
84.380	3765.000
84.440	3745.000
84.500	3670.000
84.560	3830.000
84.620	3720.000
84.680	3490.000
84.740	3695.000
84.800	3730.000
84.860	3730.000
84.920	3730.000
84.980	3580.000
85.040	3675.000
85.100	3610.000
85.160	3780.000
85.220	3655.000
85.280	3625.000
85.340	3735.000
85.400	3675.000
85.460	3895.000
85.520	3835.000
85.580	3760.000
85.640	3720.000
85.700	3685.000
85.760	3795.000
85.820	3925.000
85.880	3765.000
85.940	3555.000
86.000	3615.000
86.060	3695.000
86.120	3665.000
86.180	3745.000
86.240	3745.000
86.300	3680.000
86.360	3780.000
86.420	3815.000
86.480	3430.000
86.540	3890.000
86.600	3685.000
86.660	3595.000
86.720	3815.000
86.780	3735.000
86.840	3705.000
86.900	3650.000
86.960	3770.000
87.020	3570.000
87.080	3755.000
87.140	3700.000
87.200	3745.000
87.260	3600.000
87.320	3835.000
87.380	3915.000
87.440	3625.000
87.500	3730.000
87.560	3565.000
87.620	3660.000
87.680	3770.000
87.740	3730.000
87.800	3640.000
87.860	3505.000
87.920	3635.000
87.980	3625.000
88.040	3620.000
88.100	3725.000
88.160	3670.000
88.220	3800.000
88.280	3715.000
88.340	3660.000
88.400	3740.000
88.460	3930.000
88.520	3685.000
88.580	3615.000
88.640	3755.000
88.700	3725.000
88.760	3670.000
88.820	3615.000
88.880	3595.000
88.940	3830.000
89.000	3815.000
89.060	3745.000
89.120	3560.000
89.180	3725.000
89.240	3805.000
89.300	3655.000
89.360	3555.000
89.420	3745.000
89.480	3655.000
89.540	3705.000
89.600	3710.000
89.660	3620.000
89.720	3740.000
89.780	3610.000
89.840	3700.000
89.900	3755.000
89.960	3615.000
90.000	3615.000