File: xrd/ZnoFeCl3_650.xy
5.000	939.000
5.060	983.000
5.120	966.000
5.180	928.000
5.240	1010.000
5.300	950.000
5.360	942.000
5.420	949.000
5.480	973.000
5.540	939.000
5.600	989.000
5.660	930.000
5.720	947.000
5.780	990.000
5.840	956.000
5.900	962.000
5.960	975.000
6.020	983.000
6.080	894.000
6.140	925.000
6.200	940.000
6.260	897.000
6.320	943.000
6.380	970.000
6.440	973.000
6.500	954.000
6.560	932.000
6.620	954.000
6.680	920.000
6.740	946.000
6.800	964.000
6.860	915.000
6.920	942.000
6.980	978.000
7.040	960.000
7.100	954.000
7.160	963.000
7.220	912.000
7.280	953.000
7.340	951.000
7.400	958.000
7.460	967.000
7.520	956.000
7.580	914.000
7.640	939.000
7.700	943.000
7.760	923.000
7.820	964.000
7.880	948.000
7.940	953.000
8.000	982.000
8.060	947.000
8.120	957.000
8.180	948.000
8.240	916.000
8.300	944.000
8.360	949.000
8.420	921.000
8.480	964.000
8.540	954.000
8.600	980.000
8.660	948.000
8.720	970.000
8.780	978.000
8.840	936.000
8.900	982.000
8.960	979.000
9.020	959.000
9.080	953.000
9.140	980.000
9.200	977.000
9.260	997.000
9.320	1022.000
9.380	1006.000
9.440	994.000
9.500	990.000
9.560	1038.000
9.620	992.000
9.680	991.000
9.740	990.000
9.800	1011.000
9.860	1029.000
9.920	1020.000
9.980	999.000
10.040	1001.000
10.100	1039.000
10.160	1045.000
10.220	1020.000
10.280	1057.000
10.340	1031.000
10.400	1031.000
10.460	1065.000
10.520	1080.000
10.580	1051.000
10.640	1082.000
10.700	1074.000
10.760	1077.000
10.820	1051.000
10.880	1133.000
10.940	1087.000
11.000	1105.000
11.060	1091.000
11.120	1083.000
11.180	1108.000
11.240	1123.000
11.300	1137.000
11.360	1132.000
11.420	1117.000
11.480	1111.000
11.540	1132.000
11.600	1132.000
11.660	1139.000
11.720	1139.000
11.780	1173.000
11.840	1130.000
11.900	1173.000
11.960	1151.000
12.020	1181.000
12.080	1158.000
12.140	1175.000
12.200	1206.000
12.260	1201.000
12.320	1167.000
12.380	1208.000
12.440	1202.000
12.500	1215.000
12.560	1219.000
12.620	1218.000
12.680	1182.000
12.740	1216.000
12.800	1187.000
12.860	1209.000
12.920	1217.000
12.980	1213.000
13.040	1215.000
13.100	1259.000
13.160	1234.000
13.220	1247.000
13.280	1224.000
13.340	1245.000
13.400	1246.000
13.460	1249.000
13.520	1250.000
13.580	1213.000
13.640	1232.000
13.700	1258.000
13.760	1178.000
13.820	1236.000
13.880	1239.000
13.940	1297.000
14.000	1281.000
14.060	1283.000
14.120	1235.000
14.180	1287.000
14.240	1247.000
14.300	1310.000
14.360	1282.000
14.420	1256.000
14.480	1255.000
14.540	1269.000
14.600	1336.000
14.660	1306.000
14.720	1318.000
14.780	1319.000
14.840	1318.000
14.900	1317.000
14.960	1336.000
15.020	1295.000
15.080	1285.000
15.140	1346.000
15.200	1315.000
15.260	1324.000
15.320	1330.000
15.380	1349.000
15.440	1304.000
15.500	1312.000
15.560	1342.000
15.620	1332.000
15.680	1287.000
15.740	1313.000
15.800	1389.000
15.860	1376.000
15.920	1324.000
15.980	1382.000
16.040	1386.000
16.100	1335.000
16.160	1365.000
16.220	1417.000
16.280	1343.000
16.340	1347.000
16.400	1370.000
16.460	1406.000
16.520	1383.000
16.580	1335.000
16.640	1386.000
16.700	1392.000
16.760	1348.000
16.820	1418.000
16.880	1342.000
16.940	1371.000
17.000	1381.000
17.060	1368.000
17.120	1394.000
17.180	1378.000
17.240	1404.000
17.300	1392.000
17.360	1401.000
17.420	1400.000
17.480	1410.000
17.540	1434.000
17.600	1406.000
17.660	1437.000
17.720	1357.000
17.780	1367.000
17.840	1402.000
17.900	1461.000
17.960	1469.000
18.020	1476.000
18.080	1557.000
18.140	1550.000
18.200	1472.000
18.260	1425.000
18.320	1473.000
18.380	1480.000
18.440	1440.000
18.500	1474.000
18.560	1446.000
18.620	1449.000
18.680	1493.000
18.740	1452.000
18.800	1466.000
18.860	1467.000
18.920	1443.000
18.980	1484.000
19.040	1506.000
19.100	1473.000
19.160	1496.000
19.220	1490.000
19.280	1474.000
19.340	1489.000
19.400	1414.000
19.460	1512.000
19.520	1461.000
19.580	1523.000
19.640	1527.000
19.700	1500.000
19.760	1492.000
19.820	1519.000
19.880	1465.000
19.940	1512.000
20.000	1529.000
20.060	1523.000
20.120	1495.000
20.180	1559.000
20.240	1523.000
20.300	1544.000
20.360	1546.000
20.420	1501.000
20.480	1557.000
20.540	1500.000
20.600	1553.000
20.660	1545.000
20.720	1545.000
20.780	1547.000
20.840	1489.000
20.900	1533.000
20.960	1550.000
21.020	1590.000
21.080	1583.000
21.140	1524.000
21.200	1549.000
21.260	1596.000
21.320	1548.000
21.380	1564.000
21.440	1533.000
21.500	1520.000
21.560	1555.000
21.620	1548.000
21.680	1553.000
21.740	1567.000
21.800	1620.000
21.860	1543.000
21.920	1543.000
21.980	1604.000
22.040	1560.000
22.100	1517.000
22.160	1541.000
22.220	1576.000
22.280	1587.000
22.340	1573.000
22.400	1557.000
22.460	1592.000
22.520	1601.000
22.580	1603.000
22.640	1579.000
22.700	1611.000
22.760	1604.000
22.820	1569.000
22.880	1634.000
22.940	1657.000
23.000	1558.000
23.060	1594.000
23.120	1677.000
23.180	1599.000
23.240	1624.000
23.300	1580.000
23.360	1617.000
23.420	1606.000
23.480	1649.000
23.540	1650.000
23.600	1703.000
23.660	1705.000
23.720	1703.000
23.780	1690.000
23.840	1692.000
23.900	1798.000
23.960	2039.000
24.020	2508.000
24.080	2652.000
24.140	2189.000
24.200	1850.000
24.260	1765.000
24.320	1678.000
24.380	1701.000
24.440	1649.000
24.500	1668.000
24.560	1659.000
24.620	1665.000
24.680	1661.000
24.740	1686.000
24.800	1695.000
24.860	1680.000
24.920	1691.000
24.980	1764.000
25.040	1703.000
25.100	1643.000
25.160	1650.000
25.220	1667.000
25.280	1672.000
25.340	1712.000
25.400	1714.000
25.460	1678.000
25.520	1668.000
25.580	1672.000
25.640	1695.000
25.700	1703.000
25.760	1668.000
25.820	1695.000
25.880	1722.000
25.940	1640.000
26.000	1725.000
26.060	1705.000
26.120	1752.000
26.180	1738.000
26.240	1715.000
26.300	1720.000
26.360	1737.000
26.420	1764.000
26.480	1711.000
26.540	1733.000
26.600	1716.000
26.660	1700.000
26.720	1707.000
26.780	1700.000
26.840	1764.000
26.900	1711.000
26.960	1713.000
27.020	1663.000
27.080	1771.000
27.140	1706.000
27.200	1744.000
27.260	1761.000
27.320	1744.000
27.380	1778.000
27.440	1711.000
27.500	1741.000
27.560	1719.000
27.620	1692.000
27.680	1724.000
27.740	1724.000
27.800	1780.000
27.860	1752.000
27.920	1722.000
27.980	1779.000
28.040	1726.000
28.100	1678.000
28.160	1748.000
28.220	1729.000
28.280	1782.000
28.340	1710.000
28.400	1713.000
28.460	1821.000
28.520	1717.000
28.580	1752.000
28.640	1715.000
28.700	1744.000
28.760	1725.000
28.820	1755.000
28.880	1762.000
28.940	1768.000
29.000	1757.000
29.060	1745.000
29.120	1758.000
29.180	1752.000
29.240	1726.000
29.300	1742.000
29.360	1758.000
29.420	1778.000
29.480	1864.000
29.540	1777.000
29.600	1823.000
29.660	1820.000
29.720	1913.000
29.780	2213.000
29.840	2480.000
29.900	2310.000
29.960	2038.000
30.020	1885.000
30.080	1867.000
30.140	1814.000
30.200	1828.000
30.260	1801.000
30.320	1721.000
30.380	1742.000
30.440	1761.000
30.500	1723.000
30.560	1774.000
30.620	1804.000
30.680	1747.000
30.740	1751.000
30.800	1756.000
30.860	1796.000
30.920	1860.000
30.980	1753.000
31.040	1747.000
31.100	1753.000
31.160	1774.000
31.220	1725.000
31.280	1747.000
31.340	1804.000
31.400	1732.000
31.460	1774.000
31.520	1792.000
31.580	1750.000
31.640	1800.000
31.700	1800.000
31.760	1751.000
31.820	1752.000
31.880	1799.000
31.940	1809.000
32.000	1810.000
32.060	1882.000
32.120	1798.000
32.180	1789.000
32.240	1802.000
32.300	1841.000
32.360	1814.000
32.420	1842.000
32.480	1817.000
32.540	1817.000
32.600	1816.000
32.660	1869.000
32.720	1913.000
32.780	1956.000
32.840	2051.000
32.900	2258.000
32.960	2914.000
33.020	4446.000
33.080	5038.000
33.140	4167.000
33.200	2921.000
33.260	2320.000
33.320	2041.000
33.380	2028.000
33.440	1882.000
33.500	1858.000
33.560	1831.000
33.620	1758.000
33.680	1835.000
33.740	1724.000
33.800	1816.000
33.860	1778.000
33.920	1801.000
33.980	1790.000
34.040	1829.000
34.100	1808.000
34.160	1840.000
34.220	1847.000
34.280	1797.000
34.340	1743.000
34.400	1833.000
34.460	1791.000
34.520	1869.000
34.580	1830.000
34.640	1769.000
34.700	1901.000
34.760	1841.000
34.820	1847.000
34.880	1890.000
34.940	1968.000
35.000	2106.000
35.060	2439.000
35.120	3327.000
35.180	3671.000
35.240	3333.000
35.300	2763.000
35.360	2510.000
35.420	2717.000
35.480	3596.000
35.540	4451.000
35.600	3760.000
35.660	2972.000
35.720	2335.000
35.780	2056.000
35.840	1943.000
35.900	1941.000
35.960	1859.000
36.020	1858.000
36.080	1806.000
36.140	1806.000
36.200	1841.000
36.260	1791.000
36.320	1811.000
36.380	1884.000
36.440	1815.000
36.500	1797.000
36.560	1765.000
36.620	1760.000
36.680	1837.000
36.740	1901.000
36.800	1913.000
36.860	1884.000
36.920	1872.000
36.980	1804.000
37.040	1831.000
37.100	1761.000
37.160	1784.000
37.220	1806.000
37.280	1821.000
37.340	1804.000
37.400	1789.000
37.460	1832.000
37.520	1788.000
37.580	1828.000
37.640	1797.000
37.700	1817.000
37.760	1793.000
37.820	1791.000
37.880	1844.000
37.940	1785.000
38.000	1831.000
38.060	1785.000
38.120	1812.000
38.180	1802.000
38.240	1856.000
38.300	1777.000
38.360	1776.000
38.420	1853.000
38.480	1830.000
38.540	1817.000
38.600	1785.000
38.660	1853.000
38.720	1778.000
38.780	1750.000
38.840	1837.000
38.900	1787.000
38.960	1837.000
39.020	1809.000
39.080	1844.000
39.140	1857.000
39.200	1850.000
39.260	1786.000
39.320	1786.000
39.380	1857.000
39.440	1808.000
39.500	1805.000
39.560	1791.000
39.620	1871.000
39.680	1788.000
39.740	1819.000
39.800	1823.000
39.860	1818.000
39.920	1799.000
39.980	1779.000
40.040	1858.000
40.100	1818.000
40.160	1836.000
40.220	1810.000
40.280	1829.000
40.340	1792.000
40.400	1846.000
40.460	1887.000
40.520	1843.000
40.580	1910.000
40.640	1955.000
40.700	2146.000
40.760	2527.000
40.820	2409.000
40.880	2266.000
40.940	2038.000
41.000	1933.000
41.060	1900.000
41.120	1907.000
41.180	1832.000
41.240	1839.000
41.300	1776.000
41.360	1793.000
41.420	1824.000
41.480	1903.000
41.540	1804.000
41.600	1807.000
41.660	1818.000
41.720	1752.000
41.780	1834.000
41.840	1822.000
41.900	1755.000
41.960	1800.000
42.020	1807.000
42.080	1789.000
42.140	1849.000
42.200	1871.000
42.260	1801.000
42.320	1863.000
42.380	1821.000
42.440	1806.000
42.500	1794.000
42.560	1844.000
42.620	1858.000
42.680	1855.000
42.740	2101.000
42.800	1963.000
42.860	1976.000
42.920	1870.000
42.980	1829.000
43.040	1839.000
43.100	1836.000
43.160	1831.000
43.220	1871.000
43.280	1842.000
43.340	1808.000
43.400	1876.000
43.460	1831.000
43.520	1858.000
43.580	1825.000
43.640	1745.000
43.700	1785.000
43.760	1809.000
43.820	1789.000
43.880	1834.000
43.940	1787.000
44.000	1844.000
44.060	1777.000
44.120	1776.000
44.180	1775.000
44.240	1790.000
44.300	1824.000
44.360	1831.000
44.420	1778.000
44.480	1828.000
44.540	1833.000
44.600	1803.000
44.660	1847.000
44.720	1797.000
44.780	1776.000
44.840	1811.000
44.900	1811.000
44.960	1799.000
45.020	1842.000
45.080	1801.000
45.140	1831.000
45.200	1798.000
45.260	1774.000
45.320	1804.000
45.380	1837.000
45.440	1859.000
45.500	1810.000
45.560	1800.000
45.620	1788.000
45.680	1780.000
45.740	1833.000
45.800	1775.000
45.860	1802.000
45.920	1789.000
45.980	1805.000
46.040	1819.000
46.100	1820.000
46.160	1805.000
46.220	1794.000
46.280	1768.000
46.340	1790.000
46.400	1842.000
46.460	1859.000
46.520	1773.000
46.580	1774.000
46.640	1831.000
46.700	1850.000
46.760	1773.000
46.820	1835.000
46.880	1799.000
46.940	1812.000
47.000	1755.000
47.060	1853.000
47.120	1783.000
47.180	1777.000
47.240	1809.000
47.300	1789.000
47.360	1795.000
47.420	1784.000
47.480	1836.000
47.540	1808.000
47.600	1822.000
47.660	1745.000
47.720	1818.000
47.780	1810.000
47.840	1742.000
47.900	1821.000
47.960	1832.000
48.020	1747.000
48.080	1759.000
48.140	1813.000
48.200	1792.000
48.260	1816.000
48.320	1812.000
48.380	1844.000
48.440	1829.000
48.500	1818.000
48.560	1838.000
48.620	1861.000
48.680	1792.000
48.740	1906.000
48.800	1812.000
48.860	1861.000
48.920	1849.000
48.980	1916.000
49.040	1872.000
49.100	1885.000
49.160	1959.000
49.220	2094.000
49.280	2322.000
49.340	2698.000
49.400	2726.000
49.460	2528.000
49.520	2403.000
49.580	2128.000
49.640	1998.000
49.700	1941.000
49.760	1897.000
49.820	1893.000
49.880	1876.000
49.940	1818.000
50.000	1782.000
50.060	1804.000
50.120	1797.000
50.180	1810.000
50.240	1785.000
50.300	1831.000
50.360	1763.000
50.420	1844.000
50.480	1823.000
50.540	1808.000
50.600	1799.000
50.660	1806.000
50.720	1858.000
50.780	1817.000
50.840	1881.000
50.900	1832.000
50.960	1796.000
51.020	1808.000
51.080	1807.000
51.140	1802.000
51.200	1803.000
51.260	1834.000
51.320	1791.000
51.380	1785.000
51.440	1744.000
51.500	1840.000
51.560	1837.000
51.620	1799.000
51.680	1864.000
51.740	1808.000
51.800	1824.000
51.860	1831.000
51.920	1796.000
51.980	1809.000
52.040	1785.000
52.100	1827.000
52.160	1771.000
52.220	1837.000
52.280	1834.000
52.340	1855.000
52.400	1780.000
52.460	1796.000
52.520	1769.000
52.580	1834.000
52.640	1776.000
52.700	1868.000
52.760	1821.000
52.820	1878.000
52.880	1832.000
52.940	1873.000
53.000	1946.000
53.060	1995.000
53.120	2007.000
53.180	1942.000
53.240	1930.000
53.300	1848.000
53.360	1841.000
53.420	1842.000
53.480	1783.000
53.540	1862.000
53.600	1849.000
53.660	1942.000
53.720	1869.000
53.780	2069.000
53.840	2241.000
53.900	2530.000
53.960	3055.000
54.020	2831.000
54.080	2666.000
54.140	2473.000
54.200	2207.000
54.260	2028.000
54.320	1984.000
54.380	1911.000
54.440	1887.000
54.500	1843.000
54.560	1801.000
54.620	1884.000
54.680	1811.000
54.740	1826.000
54.800	1826.000
54.860	1816.000
54.920	1776.000
54.980	1831.000
55.040	1811.000
55.100	1843.000
55.160	1782.000
55.220	1772.000
55.280	1805.000
55.340	1779.000
55.400	1841.000
55.460	1768.000
55.520	1840.000
55.580	1818.000
55.640	1837.000
55.700	1840.000
55.760	1741.000
55.820	1856.000
55.880	1808.000
55.940	1763.000
56.000	1802.000
56.060	1874.000
56.120	1857.000
56.180	1852.000
56.240	1827.000
56.300	1870.000
56.360	1960.000
56.420	1984.000
56.480	2080.000
56.540	2239.000
56.600	2227.000
56.660	2128.000
56.720	2095.000
56.780	1976.000
56.840	1927.000
56.900	1813.000
56.960	1875.000
57.020	1835.000
57.080	1876.000
57.140	1812.000
57.200	1821.000
57.260	1846.000
57.320	1903.000
57.380	1962.000
57.440	2012.000
57.500	2056.000
57.560	1992.000
57.620	1989.000
57.680	1965.000
57.740	1905.000
57.800	1857.000
57.860	1810.000
57.920	1810.000
57.980	1846.000
58.040	1794.000
58.100	1818.000
58.160	1878.000
58.220	1812.000
58.280	1807.000
58.340	1793.000
58.400	1788.000
58.460	1874.000
58.520	1787.000
58.580	1805.000
58.640	1855.000
58.700	1855.000
58.760	1806.000
58.820	1759.000
58.880	1876.000
58.940	1822.000
59.000	1824.000
59.060	1830.000
59.120	1838.000
59.180	1758.000
59.240	1836.000
59.300	1847.000
59.360	1845.000
59.420	1798.000
59.480	1787.000
59.540	1748.000
59.600	1785.000
59.660	1805.000
59.720	1820.000
59.780	1827.000
59.840	1789.000
59.900	1818.000
59.960	1847.000
60.020	1827.000
60.080	1801.000
60.140	1830.000
60.200	1775.000
60.260	1811.000
60.320	1827.000
60.380	1802.000
60.440	1779.000
60.500	1799.000
60.560	1814.000
60.620	1827.000
60.680	1822.000
60.740	1850.000
60.800	1833.000
60.860	1807.000
60.920	1818.000
60.980	1847.000
61.040	1809.000
61.100	1796.000
61.160	1850.000
61.220	1792.000
61.280	1840.000
61.340	1772.000
61.400	1852.000
61.460	1827.000
61.520	1820.000
61.580	1844.000
61.640	1836.000
61.700	1903.000
61.760	1865.000
61.820	1912.000
61.880	1931.000
61.940	1962.000
62.000	2100.000
62.060	2370.000
62.120	2511.000
62.180	2429.000
62.240	2585.000
62.300	2794.000
62.360	2688.000
62.420	2468.000
62.480	2418.000
62.540	2332.000
62.600	2113.000
62.660	2026.000
62.720	1922.000
62.780	1906.000
62.840	1836.000
62.900	1920.000
62.960	1853.000
63.020	1838.000
63.080	1801.000
63.140	1862.000
63.200	1842.000
63.260	1879.000
63.320	1862.000
63.380	1887.000
63.440	1863.000
63.500	1909.000
63.560	1881.000
63.620	1932.000
63.680	1972.000
63.740	2060.000
63.800	2201.000
63.860	2455.000
63.920	2534.000
63.980	2309.000
64.040	2308.000
64.100	2231.000
64.160	2040.000
64.220	1981.000
64.280	1914.000
64.340	1884.000
64.400	1844.000
64.460	1879.000
64.520	1846.000
64.580	1844.000
64.640	1830.000
64.700	1878.000
64.760	1809.000
64.820	1787.000
64.880	1827.000
64.940	1818.000
65.000	1802.000
65.060	1841.000
65.120	1858.000
65.180	1797.000
65.240	1876.000
65.300	1852.000
65.360	1823.000
65.420	1828.000
65.480	1832.000
65.540	1849.000
65.600	1793.000
65.660	1795.000
65.720	1878.000
65.780	1816.000
65.840	1795.000
65.900	1821.000
65.960	1858.000
66.020	1814.000
66.080	1883.000
66.140	1820.000
66.200	1836.000
66.260	1871.000
66.320	1772.000
66.380	1805.000
66.440	1796.000
66.500	1881.000
66.560	1799.000
66.620	1796.000
66.680	1797.000
66.740	1818.000
66.800	1820.000
66.860	1808.000
66.920	1827.000
66.980	1831.000
67.040	1832.000
67.100	1808.000
67.160	1798.000
67.220	1781.000
67.280	1815.000
67.340	1844.000
67.400	1808.000
67.460	1816.000
67.520	1855.000
67.580	1842.000
67.640	1797.000
67.700	1783.000
67.760	1781.000
67.820	1818.000
67.880	1815.000
67.940	1794.000
68.000	1841.000
68.060	1787.000
68.120	1829.000
68.180	1857.000
68.240	1807.000
68.300	1840.000
68.360	1821.000
68.420	1772.000
68.480	1753.000
68.540	1822.000
68.600	1860.000
68.660	1780.000
68.720	1820.000
68.780	1813.000
68.840	1815.000
68.900	1806.000
68.960	1808.000
69.020	1814.000
69.080	1907.000
69.140	1840.000
69.200	1810.000
69.260	1871.000
69.320	1834.000
69.380	1850.000
69.440	1887.000
69.500	1890.000
69.560	1824.000
69.620	1922.000
69.680	1865.000
69.740	1844.000
69.800	1807.000
69.860	1857.000
69.920	1836.000
69.980	1847.000
70.040	1856.000
70.100	1808.000
70.160	1866.000
70.220	1802.000
70.280	1863.000
70.340	1798.000
70.400	1881.000
70.460	1864.000
70.520	1880.000
70.580	1838.000
70.640	1828.000
70.700	1851.000
70.760	1847.000
70.820	1805.000
70.880	1792.000
70.940	1805.000
71.000	1845.000
71.060	1769.000
71.120	1817.000
71.180	1814.000
71.240	1846.000
71.300	1883.000
71.360	1848.000
71.420	1883.000
71.480	1835.000
71.540	1835.000
71.600	1831.000
71.660	1837.000
71.720	1912.000
71.780	1983.000
71.840	2040.000
71.900	1961.000
71.960	1959.000
72.020	1990.000
72.080	1979.000
72.140	1939.000
72.200	1932.000
72.260	1885.000
72.320	1861.000
72.380	1864.000
72.440	1865.000
72.500	1839.000
72.560	1892.000
72.620	1867.000
72.680	1847.000
72.740	1862.000
72.800	1821.000
72.860	1789.000
72.920	1787.000
72.980	1846.000
73.040	1829.000
73.100	1782.000
73.160	1829.000
73.220	1804.000
73.280	1867.000
73.340	1851.000
73.400	1876.000
73.460	1919.000
73.520	1900.000
73.580	1901.000
73.640	1930.000
73.700	1843.000
73.760	1861.000
73.820	1859.000
73.880	1816.000
73.940	1818.000
74.000	1854.000
74.060	1855.000
74.120	1825.000
74.180	1818.000
74.240	1868.000
74.300	1830.000
74.360	1839.000
74.420	1851.000
74.480	1826.000
74.540	1909.000
74.600	1903.000
74.660	1844.000
74.720	1846.000
74.780	1843.000
74.840	1831.000
74.900	1835.000
74.960	1856.000
75.020	1825.000
75.080	1865.000
75.140	1865.000
75.200	1889.000
75.260	1899.000
75.320	1967.000
75.380	1986.000
75.440	1960.000
75.500	1946.000
75.560	1893.000
75.620	1926.000
75.680	1853.000
75.740	1837.000
75.800	1856.000
75.860	1786.000
75.920	1796.000
75.980	1803.000
76.040	1795.000
76.100	1846.000
76.160	1790.000
76.220	1798.000
76.280	1823.000
76.340	1775.000
76.400	1851.000
76.460	1781.000
76.520	1806.000
76.580	1817.000
76.640	1812.000
76.700	1809.000
76.760	1855.000
76.820	1815.000
76.880	1836.000
76.940	1828.000
77.000	1830.000
77.060	1888.000
77.120	1816.000
77.180	1850.000
77.240	1830.000
77.300	1825.000
77.360	1891.000
77.420	1820.000
77.480	1821.000
77.540	1840.000
77.600	1907.000
77.660	1857.000
77.720	1833.000
77.780	1840.000
77.840	1890.000
77.900	1805.000
77.960	1849.000
78.020	1845.000
78.080	1865.000
78.140	1827.000
78.200	1848.000
78.260	1796.000
78.320	1849.000
78.380	1822.000
78.440	1858.000
78.500	1856.000
78.560	1821.000
78.620	1823.000
78.680	1849.000
78.740	1841.000
78.800	1879.000
78.860	1835.000
78.920	1857.000
78.980	1798.000
79.040	1825.000
79.100	1807.000
79.160	1823.000
79.220	1843.000
79.280	1835.000
79.340	1808.000
79.400	1782.000
79.460	1818.000
79.520	1830.000
79.580	1850.000
79.640	1849.000
79.700	1785.000
79.760	1808.000
79.820	1815.000
79.880	1803.000
79.940	1824.000
80.000	1852.000
80.060	1805.000
80.120	1832.000
80.180	1839.000
80.240	1789.000
80.300	1836.000
80.360	1914.000
80.420	1838.000
80.480	1903.000
80.540	1886.000
80.600	1877.000
80.660	1878.000
80.720	1873.000
80.780	1860.000
80.840	1875.000
80.900	1857.000
80.960	1819.000
81.020	1858.000
81.080	1867.000
81.140	1811.000
81.200	1821.000
81.260	1847.000
81.320	1876.000
81.380	1871.000
81.440	1824.000
81.500	1850.000
81.560	1839.000
81.620	1834.000
81.680	1820.000
81.740	1809.000
81.800	1830.000
81.860	1835.000
81.920	1841.000
81.980	1759.000
82.040	1833.000
82.100	1772.000
82.160	1812.000
82.220	1832.000
82.280	1803.000
82.340	1842.000
82.400	1816.000
82.460	1805.000
82.520	1826.000
82.580	1832.000
82.640	1856.000
82.700	1885.000
82.760	1895.000
82.820	1901.000
82.880	1894.000
82.940	1911.000
83.000	1934.000
83.060	1882.000
83.120	1876.000
83.180	1835.000
83.240	1817.000
83.300	1870.000
83.360	1820.000
83.420	1823.000
83.480	1894.000
83.540	1776.000
83.600	1807.000
83.660	1828.000
83.720	1771.000
83.780	1777.000
83.840	1800.000
83.900	1813.000
83.960	1797.000
84.020	1861.000
84.080	1827.000
84.140	1776.000
84.200	1835.000
84.260	1850.000
84.320	1808.000
84.380	1831.000
84.440	1852.000
84.500	1862.000
84.560	1844.000
84.620	1829.000
84.680	1918.000
84.740	1859.000
84.800	1893.000
84.860	1942.000
84.920	1912.000
84.980	1966.000
85.040	1917.000
85.100	1900.000
85.160	1883.000
85.220	1924.000
85.280	1847.000
85.340	1844.000
85.400	1816.000
85.460	1811.000
85.520	1819.000
85.580	1811.000
85.640	1787.000
85.700	1830.000
85.760	1810.000
85.820	1825.000
85.880	1848.000
85.940	1856.000
86.000	1845.000
86.060	1860.000
86.120	1837.000
86.180	1818.000
86.240	1819.000
86.300	1870.000
86.360	1831.000
86.420	1813.000
86.480	1840.000
86.540	1803.000
86.600	1843.000
86.660	1810.000
86.720	1808.000
86.780	1879.000
86.840	1822.000
86.900	1816.000
86.960	1835.000
87.020	1749.000
87.080	1820.000
87.140	1858.000
87.200	1841.000
87.260	1821.000
87.320	1831.000
87.380	1784.000
87.440	1819.000
87.500	1807.000
87.560	1833.000
87.620	1822.000
87.680	1845.000
87.740	1839.000
87.800	1862.000
87.860	1849.000
87.920	1880.000
87.980	1839.000
88.040	1902.000
88.100	1825.000
88.160	1851.000
88.220	1867.000
88.280	1900.000
88.340	1888.000
88.400	1926.000
88.460	1952.000
88.520	1923.000
88.580	1966.000
88.640	1911.000
88.700	1910.000
88.760	1942.000
88.820	1929.000
88.880	1923.000
88.940	1917.000
89.000	1960.000
89.060	1955.000
89.120	2002.000
89.180	1933.000
89.240	1897.000
89.300	1903.000
89.360	1849.000
89.420	1870.000
89.480	1832.000
89.540	1782.000
89.600	1799.000
89.660	1835.000
89.720	1853.000
89.780	1826.000
89.840	1838.000
89.900	1847.000
89.960	1788.000
90.000	1788.000